File: Synthesis of barbituric acid doped carbon nitride for efficient solar-driven photocatalytic degradation of aniline/data/CN-BA-XPS/XPS/1#-C1s.dat
B.E.(eV)           Raw Intensity       Peak Sum            Background          Peak 1              Peak 2              Peak 3              difference
 321.02             3058.13             3061.865            3058.13             3058.13             3061.568            3058.427           -3.735107
 320.87             3019.57             3062.136            3058.365            3058.365            3061.835            3058.666           -42.56567
 320.72             2998.31             3061.69             3057.884            3057.884            3061.386            3058.188           -63.38013
 320.57             3090.9              3061.657            3057.815            3057.815            3061.35             3058.122            29.24268
 320.42             2961.21             3061.568            3057.689            3057.689            3061.257            3058               -100.3582
 320.27             2928.05             3061.581            3057.665            3057.665            3061.267            3057.979           -133.5313
 320.12             3127.9              3061.508            3057.553            3057.553            3061.19             3057.872            66.39185
 319.97             2886.21             3061.517            3057.524            3057.524            3061.196            3057.846           -175.3074
 319.82             3062.48             3061.517            3057.485            3057.485            3061.191            3057.81             .9631348
 319.67             3025.18             3061.626            3057.555            3057.555            3061.297            3057.884           -36.44653
 319.52             2885.17             3061.656            3057.545            3057.545            3061.323            3057.878           -176.4866
 319.37             2997.79             3061.279            3057.127            3057.127            3060.942            3057.464           -63.48926
 319.22             3246.33             3061.364            3057.17             3057.17             3061.023            3057.511            184.9661
 319.07             3139.23             3061.641            3057.406            3057.406            3061.296            3057.75             77.58862
 318.92             3010.65             3061.927            3057.649            3057.649            3061.578            3057.998           -51.27734
 318.77             2989.56             3061.787            3057.465            3057.465            3061.434            3057.819           -72.22705
 318.62             3067.6              3061.839            3057.473            3057.473            3061.481            3057.831            5.76123
 318.47             3145.79             3061.672            3057.261            3057.261            3061.31             3057.623            84.11841
 318.32             3211.85             3061.649            3057.193            3057.193            3061.282            3057.559            150.2014
 318.17             3259.44             3062.227            3057.725            3057.725            3061.856            3058.096            197.2131
 318.02             3023.3              3062.543            3057.994            3057.994            3062.167            3058.37            -39.24268
 317.87             3165.17             3062.771            3058.175            3058.175            3062.391            3058.555            102.3987
 317.72             3048.92             3062.838            3058.194            3058.194            3062.453            3058.579           -13.91821
 317.57             3073.12             3063.016            3058.323            3058.323            3062.626            3058.713            10.104
 317.42             3313.93             3063.153            3058.409            3058.409            3062.758            3058.804            250.7773
 317.27             3244.23             3063.774            3058.98             3058.98             3063.374            3059.381            180.4556
 317.12             3126.92             3064.293            3059.448            3059.448            3063.888            3059.853            62.62671
 316.97             2991.58             3064.774            3059.877            3059.877            3064.364            3060.287           -73.19409
 316.82             3001.88             3064.889            3059.938            3059.938            3064.473            3060.354           -63.00879
 316.67             3295.48             3064.986            3059.981            3059.981            3064.565            3060.403            230.4939
 316.52             3202.35             3065.781            3060.721            3060.721            3065.354            3061.148            136.5693
 316.37             3056.17             3066.334            3061.219            3061.219            3065.902            3061.652           -10.16455
 316.22             3111.35             3066.798            3061.626            3061.626            3066.36             3062.065            44.55176
 316.07             3076.89             3067.243            3062.013            3062.013            3066.799            3062.458            9.646729
 315.92             3090.52             3067.627            3062.339            3062.339            3067.177            3062.79             22.89258
 315.77             3265.54             3068.111            3062.763            3062.763            3067.655            3063.22             197.4287
 315.62             3371.5              3068.737            3063.328            3063.328            3068.274            3063.791            302.7634
 315.47             3088.88             3069.813            3064.343            3064.343            3069.344            3064.812            19.06714
 315.32             3115.23             3070.433            3064.9              3064.9              3069.957            3065.376            44.79688
 315.17             3154.74             3071.028            3065.431            3065.431            3070.545            3065.914            83.71191
 315.02             3270.95             3071.651            3065.99             3065.99             3071.162            3066.479            199.2986
 314.87             2993.88             3072.727            3066.999            3066.999            3072.23             3067.495           -78.84692
 314.72             3236.91             3073.429            3067.634            3067.634            3072.925            3068.137            163.481
 314.57             3224.34             3074.258            3068.394            3068.394            3073.747            3068.905            150.0823
 314.42             3256.31             3075.153            3069.219            3069.219            3074.635            3069.738            181.1572
 314.27             3198.18             3076.283            3070.279            3070.279            3075.757            3070.805            121.897
 314.12             3273.5              3077.36             3071.284            3071.284            3076.826            3071.817            196.1399
 313.97             3189.12             3078.417            3072.266            3072.266            3077.875            3072.808            110.7036
 313.82             3096.28             3079.674            3073.449            3073.449            3079.124            3073.999            16.60596
 313.67             3110.52             3080.866            3074.565            3074.565            3080.308            3075.123            29.65381
 313.52             2988.09             3081.941            3075.562            3075.562            3081.375            3076.129           -93.85107
 313.37             3102.73             3082.718            3076.259            3076.259            3082.142            3076.835            20.01245
 313.22             2957.72             3083.466            3076.927            3076.927            3082.881            3077.511           -125.7456
 313.07             3030.36             3084.371            3077.75             3077.75             3083.777            3078.343           -54.0105
 312.92             3165.27             3085.453            3078.748            3078.748            3084.85             3079.351            79.81738
 312.77             3158.74             3086.662            3079.872            3079.872            3086.049            3080.484            72.07813
 312.62             3018.71             3087.785            3080.907            3080.907            3087.162            3081.53            -69.07471
 312.47             2972.11             3088.685            3081.719            3081.719            3088.053            3082.352           -116.575
 312.32             2996.8              3089.493            3082.436            3082.436            3088.85             3083.079           -92.69263
 312.17             3179.78             3090.193            3083.044            3083.044            3089.54             3083.698            89.58716
 312.02             2929.29             3091.2              3083.958            3083.958            3090.536            3084.622           -161.9102
 311.87             3180.66             3092.131            3084.793            3084.793            3091.456            3085.468            88.52856
 311.72             3038.44             3093.122            3085.686            3085.686            3092.436            3086.372           -54.68237
 311.57             2864.64             3093.874            3086.338            3086.338            3093.176            3087.036           -229.2341
 311.42             3099.64             3094.467            3086.829            3086.829            3093.757            3087.539            5.172607
 311.27             3061.57             3095.269            3087.526            3087.526            3094.546            3088.249           -33.69849
 311.12             3024.01             3095.952            3088.104            3088.104            3095.217            3088.838           -71.94189
 310.97             2883.22             3096.711            3088.754            3088.754            3095.963            3089.502           -213.491
 310.82             2844.95             3097.179            3089.112            3089.112            3096.418            3089.873           -252.2292
 310.67             2843.85             3097.359            3089.179            3089.179            3096.585            3089.953           -253.509
 310.52             2799.29             3097.431            3089.135            3089.135            3096.642            3089.923           -298.1406
 310.37             2678.77             3097.498            3089.084            3089.084            3096.695            3089.887           -418.7278
 310.22             2846.88             3097.712            3089.177            3089.177            3096.894            3089.995           -250.8318
 310.07             2743.82             3097.869            3089.212            3089.212            3097.037            3090.045           -354.0493
 309.92             2902.59             3097.851            3089.068            3089.068            3097.002            3089.916           -195.2605
 309.77             2863.56             3098.225            3089.314            3089.314            3097.361            3090.178           -234.6653
 309.62             2719.92             3097.978            3088.935            3088.935            3097.097            3089.816           -378.0581
 309.47             2806.68             3097.586            3088.409            3088.409            3096.688            3089.307           -290.9063
 309.32             2685.07             3097.369            3088.054            3088.054            3096.454            3088.969           -412.2986
 309.17             2732.47             3096.898            3087.443            3087.443            3095.965            3088.376           -364.428
 309.02             2591.82             3096.388            3086.789            3086.789            3095.437            3087.741           -504.5679
 308.87             2635.43             3095.37             3085.624            3085.624            3094.399            3086.594           -459.9399
 308.72             2701.59             3094.419            3084.523            3084.523            3093.429            3085.513           -392.8289
 308.57             2804.92             3093.419            3083.369            3083.369            3092.409            3084.379           -288.4993
 308.42             2591.67             3092.543            3082.335            3082.335            3091.512            3083.366           -500.8728
 308.27             2505.55             3091.335            3080.965            3080.965            3090.282            3082.018           -585.7847
 308.12             2681.85             3089.835            3079.3              3079.3              3088.761            3080.375           -407.9854
 307.97             2631.56             3088.203            3077.499            3077.499            3087.105            3078.596           -456.6431
 307.82             2464.66             3086.425            3075.547            3075.547            3085.304            3076.668           -621.7651
 307.67             2461.77             3084.006            3072.95             3072.95             3082.861            3074.096           -622.2363
 307.52             2513.17             3081.539            3070.3              3070.3              3080.368            3071.471           -568.3687
 307.37             2482.63             3078.834            3067.408            3067.408            3077.637            3068.605           -596.2041
 307.22             2479.5              3076.162            3064.544            3064.544            3074.938            3065.768           -596.6616
 307.07             2335.03             3073.501            3061.687            3061.687            3072.25             3062.938           -738.4707
 306.92             2435.88             3070.4              3058.385            3058.385            3069.12             3059.665           -634.5205
 306.77             2303.38             3067.131            3054.908            3054.908            3065.822            3056.218           -763.7515
 306.62             2397.56             3063.393            3050.957            3050.957            3062.052            3052.298           -665.8328
 306.47             2485.19             3059.885            3047.232            3047.232            3058.513            3048.604           -574.6956
 306.32             2236.55             3055.864            3042.986            3042.986            3054.458            3044.391           -819.3135
 306.17             2465.91             3051.805            3038.697            3038.697            3050.365            3040.136           -585.895
 306.02             2292.82             3047.675            3034.331            3034.331            3046.2              3035.806           -754.8552
 305.87             2253.28             3043.113            3029.525            3029.525            3041.601            3031.037           -789.833
 305.72             2123.25             3038.149            3024.311            3024.311            3036.598            3025.861           -914.8987
 305.57             2139.56             3032.706            3018.611            3018.611            3031.116            3020.201           -893.1458
 305.42             2213.28             3027.001            3012.642            3012.642            3025.37             3014.273           -813.7207
 305.27             2160.98             3021.105            3006.474            3006.474            3019.432            3008.148           -860.1255
 305.12             2147.25             3014.906            2999.995            2999.995            3013.188            3001.714           -867.6563
 304.97             2234.7              3008.235            2993.036            2993.036            3006.47             2994.801           -773.5352
 304.82             2272.27             3001.727            2986.231            2986.231            2999.914            2988.044           -729.4568
 304.67             2185.22             2995.172            2979.37             2979.37             2993.309            2981.233           -809.9519
 304.52             2101.51             2987.866            2971.749            2971.749            2985.95             2973.664           -886.356
 304.37             2089.09             2980.286            2963.844            2963.844            2978.316            2965.814           -891.1963
 304.22             1997.19             2972.351            2955.574            2955.574            2970.324            2957.601           -975.1611
 304.07             2166.25             2964.315            2947.192            2947.192            2962.229            2949.279           -798.0649
 303.92             2113.15             2955.846            2938.367            2938.367            2953.698            2940.516           -842.6963
 303.77             2033.88             2946.894            2929.047            2929.047            2944.681            2931.26            -913.0143
 303.62             1951.88             2937.683            2919.456            2919.456            2935.402            2921.737           -985.8033
 303.47             2108.61             2928.292            2909.671            2909.671            2925.939            2912.023           -819.6814
 303.32             2123.19             2918.592            2899.565            2899.565            2916.165            2901.992           -795.4016
 303.17             1943.25             2908.746            2889.299            2889.299            2906.241            2891.804           -965.4956
 303.02             2057.38             2898.277            2878.396            2878.396            2895.69             2880.982           -840.8967
 302.87             2138.62             2887.477            2867.146            2867.146            2884.805            2869.818           -748.8564
 302.72             2117.66             2876.564            2855.769            2855.769            2873.802            2858.531           -758.9043
 302.57             2055.63             2865.304            2844.027            2844.027            2862.448            2846.883           -809.6741
 302.42             1861.81             2853.588            2831.811            2831.811            2850.632            2834.767           -991.7776
 302.27             2099.19             2841.32             2819.025            2819.025            2838.259            2822.086           -742.1301
 302.12             2007.11             2829.081            2806.249            2806.249            2825.909            2809.42            -821.9711
 301.97             1972.14             2816.455            2793.065            2793.065            2813.167            2796.353           -844.3148
 301.82             2103.11             2803.242            2779.272            2779.272            2799.831            2782.684           -700.1318
 301.67             2085.62             2790.185            2765.613            2765.613            2786.644            2769.155           -704.5647
 301.52             2002.6              2776.573            2751.375            2751.375            2772.894            2755.054           -773.973
 301.37             2064.95             2762.532            2736.683            2736.683            2758.708            2740.508           -697.5823
 301.22             2129.48             2748.264            2721.737            2721.737            2744.285            2725.716           -618.7842
 301.07             2224.78             2733.749            2706.515            2706.515            2729.605            2710.658           -508.9688
 300.92             2117.1              2718.953            2690.983            2690.983            2714.636            2695.301           -601.8533
 300.77             2201.41             2703.891            2675.152            2675.152            2699.387            2679.655           -502.4807
 300.62             2317.8              2688.771            2659.229            2659.229            2684.07             2663.93            -370.9709
 300.47             2174.18             2673.279            2642.899            2642.899            2668.367            2647.811           -499.0991
 300.32             2274.48             2657.545            2626.288            2626.288            2652.408            2631.425           -383.0652
 300.17             2299.75             2641.516            2609.341            2609.341            2636.138            2614.719           -341.7661
 300.02             2317.57             2625.079            2591.942            2591.942            2619.444            2597.578           -307.5093
 299.87             2424.52             2608.766            2574.62             2574.62             2602.854            2580.533           -184.2463
 299.72             2285.96             2592.115            2556.909            2556.909            2585.904            2563.12            -306.1545
 299.57             2348.05             2574.974            2538.656            2538.656            2568.443            2545.186           -226.9236
 299.42             2228.79             2557.713            2520.224            2520.224            2550.837            2527.1             -328.9231
 299.27             2165.58             2539.668            2500.945            2500.945            2532.419            2508.195           -374.0884
 299.12             2173.08             2521.043            2481.019            2481.019            2513.389            2488.673           -347.9634
 298.97             2151                2502.18             2460.781            2460.781            2494.088            2468.874           -351.1804
 298.82             2102.84             2483.163            2440.31             2440.31             2474.593            2448.88            -380.323
 298.67             2138.15             2463.135            2418.741            2418.741            2454.045            2427.831           -324.9851
 298.52             1994.59             2443.061            2397.032            2397.032            2433.403            2406.69            -448.4708
 298.37             1863.45             2422.248            2374.481            2374.481            2411.969            2384.761           -558.7983
 298.22             1965.36             2400.88             2351.262            2351.262            2389.917            2362.225           -435.5204
 298.07             1769.05             2379.084            2327.488            2327.488            2367.366            2339.206           -610.0344
 297.92             1801.01             2356.883            2303.167            2303.167            2344.328            2315.722           -555.873
 297.77             1956.81             2334.509            2278.513            2278.513            2321.019            2292.003           -377.6992
 297.62             1918.12             2311.68             2253.217            2253.217            2297.135            2267.763           -393.5604
 297.47             1770.81             2288.43             2227.276            2227.276            2272.677            2243.029           -517.6201
 297.32             1904.01             2264.871            2200.744            2200.744            2247.705            2217.91            -360.8608
 297.17             1979.14             2241.448            2173.984            2173.984            2222.586            2192.847           -262.3085
 297.02             1774.01             2217.898            2146.595            2146.595            2196.926            2167.567           -443.8877
 296.87             1867.65             2194.506            2118.662            2118.662            2170.815            2142.353           -326.8563
 296.72             1925.76             2171.289            2089.887            2089.887            2143.963            2117.213           -245.5291
 296.57             1925.66             2149.334            2060.899            2060.899            2117.006            2093.227           -223.6737
 296.42             1822.1              2129.015            2031.419            2031.419            2089.673            2070.76            -306.9147
 296.27             1847.8              2110.846            2001.058            2001.058            2061.586            2050.318           -263.0457
 296.12             1870.98             2096.345            1970.167            1970.167            2033.102            2033.409           -225.3647
 295.97             1872.84             2086.762            1938.534            1938.534            2004.024            2021.272           -213.9222
 295.82             2059.14             2084.221            1906.587            1906.587            1974.79             2016.018           -25.08105
 295.67             1994.38             2090.759            1874.534            1874.534            1945.621            2019.672           -96.37927
 295.52             2078.67             2107.809            1842.02             1842.02             1916.179            2033.65            -29.13916
 295.37             2280.01             2136.909            1809.145            1809.145            1886.577            2059.477            143.1013
 295.22             2142.31             2178.922            1775.945            1775.945            1856.872            2097.995           -36.61182
 295.07             2336.99             2233.77             1742.502            1742.502            1827.164            2149.108            103.22
 294.92             2404.52             2299.973            1708.784            1708.784            1797.446            2211.311            104.5469
 294.77             2483.14             2374.741            1674.935            1674.935            1767.886            2281.789            108.3992
 294.62             2717.34             2453.038            1640.525            1640.525            1738.083            2355.479            264.3025
 294.47             2737.89             2529.209            1605.988            1605.988            1708.502            2426.695            208.6812
 294.32             2476.55             2595.681            1571.174            1571.174            1679.03             2487.824           -119.1306
 294.17             2458.55             2643.49             1535.325            1535.325            1648.951            2529.865           -184.9402
 294.02             2649.78             2665.252            1499.009            1499.009            1618.877            2545.383           -15.47192
 293.87             2619.21             2655.276            1462.648            1462.648            1589.286            2528.638           -36.06616
 293.72             2454.36             2610.352            1425.484            1425.484            1559.477            2476.359           -155.9919
 293.57             2482.02             2532.885            1387.894            1387.894            1529.899            2390.879           -50.8645
 293.42             2388.44             2428.436            1349.601            1349.601            1500.354            2277.682           -39.99609
 293.27             2410.03             2304.708            1310.367            1310.367            1470.699            2144.375            105.322
 293.12             2245.79             2170.443            1270.503            1270.503            1441.35             1999.596            75.34717
 292.97             2040.1              2033.155            1229.814            1229.814            1412.236            1850.734            6.94458
 292.82             2040.74             1898.837            1187.812            1187.812            1383.017            1703.632            141.9033
 292.67             1791.71             1772.912            1144.949            1144.949            1354.318            1563.543            18.79822
 292.52             1967.45             1658.621            1101.084            1101.084            1326.205            1433.5              308.8287
 292.37             1580.56             1558.077            1056.397            1056.397            1299.096            1315.377            22.48352
 292.22             1422.01             1471.41             1010.41             1010.41             1272.808            1209.012           -49.39966
 292.07             1326.61             1398.302            963.1464            963.1464            1247.714            1113.734           -71.69165
 291.92             1267.34             1338.177            914.9804            914.9804            1224.614            1028.544           -70.83679
 291.77             1342.11             1289.876            865.9663            865.9663            1204.089            951.7534            52.23401
 291.62             1303.88             1252.132            816.0172            816.0172            1186.683            881.4661            51.74841
 291.47             1345.89             1224.186            765.2855            765.2855            1173.354            816.1176            121.7045
 291.32             1161.28             1205.693            713.8903            713.8903            1165.238            754.3455           -44.41345
 291.17             1370.79             1196.302            661.3389            661.3389            1163.185            694.4555            174.4883
 291.02             1300.7              1197.423            608.0707            608.0707            1169.531            635.9629            103.2769
 290.87             1299.57             1211.249            554.0406            554.0406            1187.141            578.1486            88.32117
 290.72             1269.63             1242.281            499.0774            499.0774            1220.992            520.3657            27.34949
 290.57             1273.59             1300.02             443.162             443.162             1280.907            462.2746           -26.42969
 290.42             1603.12             1404.215            386.803             386.803             1386.845            404.1731            198.9047
 290.27             1779.01             1592.467            330.147             330.147             1576.542            346.0725            186.5428
 290.12             2157.28             1932.688            273.3838            273.3838            1917.994            288.0778            224.592
 289.97             2856.46             2537.823            217.4919            217.4919            2524.201            231.113             318.6375
 289.82             3728.52             3572.456            162.9446            162.9446            3559.784            175.6164            156.0642
 289.67             5448.77             5245.132            111.4231            111.4231            5233.309            123.2461            203.6382
 289.52             7595.93             7768.639            65.11548            65.11549            7757.581            76.17368           -172.709
 289.37             11398.9             11283.01            26.45337            26.45339            11272.65            36.81902            115.8887
 289.22             15276.6             15763.88            .2463379            .2464091            15754.15            9.982188           -487.2822
 289.07             20291.7             20924.34           -11.76147           -11.76121            20915.18           -2.600249           -632.6426
 288.92             26247.7             26164.76           -5.157959           -5.157003            26156.13            3.477496            82.93555
 288.77             29660.2             30568.71            19.66235            19.6656             30560.55            27.81542           -908.5059
 288.62             32312.6             33054.83            59.96899            59.97946            33047.11            67.67862           -742.2324
 288.47             33484.8             32852.73            112.6389            112.671             32845.39            119.9399            632.0742
 288.32             30574.3             30041.86            170.5959            170.6894            30034.84            177.5196            532.4395
 288.17             26679               25484.73            225.2073            225.4659            25477.9             231.7819            1194.27
 288.02             20294.1             20246.91            270.9338            271.6144            20239.98            277.1848            47.18555
 287.87             15330.8             15192.57            304.1379            305.8399            15184.91            310.0883            138.2344
 287.72             10638.3             10867.98            326.2024            330.2472            10858.26            331.8733           -229.6777
 287.57             7021.07             7512.217            338.2112            347.3472            7497.671            343.6216           -491.1475
 287.42             4569.12             5122.79             343.0383            362.6499            5098.011            348.2057           -553.6699
 287.27             3455.17             3547.544            342.5344            382.5504            3502.588            347.4746           -92.37451
 287.12             2649.27             2583.54             339.8774            417.4649            2501.225            344.605             65.73022
 286.97             2329.77             2040.493            335.6407            478.6129            1892.993            340.1691            289.2767
 286.82             2046.87             1778.882            330.8444            581.2323            1524.153            335.1857            267.988
 286.67             2080.9              1713.011            326.0273            742.7791            1292.094            330.1929            367.8888
 286.52             2266.12             1798.843            321.3418            980.6401            1135.544            325.342             467.2776
 286.37             2273.9              2016.735            317.4215            1308.586            1021.726            321.266             257.1648
 286.22             2447.71             2352.674            313.6936            1729.852            932.8184            317.3912            95.03589
 286.07             2467.21             2787.319            310.8127            2233.816            860.7574            314.3716           -320.1091
 285.92             3108.55             3286.326            309.0356            2790.741            801.1924            312.4635           -177.7756
 285.77             3431.66             3799.191            308.8645            3352.821            751.9309            312.1684           -367.5315
 285.62             3913.56             4262.668            310.3455            3858.549            711.2778            313.5319           -349.1079
 285.47             4373.76             4612.28             313.9341            4244.732            678.4067            317.0092           -238.5205
 285.32             4807.3              4793.63             319.3303            4457.946            652.0448            322.2999            13.66943
 285.17             4890.24             4775.451            326.4402            4467.692            631.3296            329.3095            114.7891
 285.02             4992.25             4555.976            334.574             4272.827            614.949             337.348             436.2744
 284.87             4404.14             4164.039            343.2502            3902.676            601.9301            345.9336            240.1011
 284.72             4090.66             3650.965            351.5378            3408.98             590.9251            354.1349            439.6951
 284.57             3273.22             3079.774            359.1335            2855.101            581.2917            361.6484            193.446
 284.42             2640.21             2510.766            365.1008            2301.619            571.8115            367.5374            129.4436
 284.27             2042.75             1992.716            369.7151            1797.548            562.5215            372.0768            50.03418
 284.12             1454.81             1556.317            373.1755            1373.774            553.4282            375.4659           -101.5068
 283.97             1161.69             1212.961            375.4457            1041.86             544.3246            377.6678           -51.27112
 283.82             881.823             959.4207            376.8972            798.7212            535.4398            379.0541           -77.59766
 283.67             665.036             782.8981            377.9234            631.6816            527.0453            380.0178           -117.8621
 283.52             459.974             666.0902            378.4807            523.5447            518.9915            380.5154           -206.1162
 283.37             512.485             592.2516            378.8295            457.6516            511.452             380.8069           -79.7666
 283.22             465.396             547.0543            379.05              419.7542            504.4275            380.9727           -81.65833
 283.07             493.858             519.7823            379.2275            399.2046            497.9352            381.0975           -25.92435
 282.92             447.769             503.1952            379.5034            388.8215            492.0576            381.3229           -55.42618
 282.77             457.433             492.4228            379.6576            383.7876            486.5218            381.4286           -34.98975
 282.62             378.071             484.9172            379.8584            381.5984            481.4528            381.5829           -106.8462
 282.47             365.906             479.0201            379.9401            380.6367            476.6437            381.6197           -113.114
 282.32             319.168             473.9937            379.9354            380.2005            472.092             381.5721           -154.8257
 282.17             466.697             469.4545            379.8416            379.9375            467.7634            381.4368           -2.757538
 282.02             341.507             465.5672            380.0081            380.041             463.9789            381.5634           -124.0602
 281.87             300.76              461.8103            380.0025            380.0132            460.2826            381.5194           -161.0503
 281.72             380.662             458.2932            379.983             379.9863            456.8099            381.4629           -77.63116
 281.57             382.683             454.9973            379.9609            379.9619            453.5521            381.4052           -72.31433
 281.42             396.309             451.8938            379.9285            379.9288            450.4837            381.3384           -55.58484
 281.27             402.941             449.0638            379.9848            379.9849            447.687             381.3615           -46.12274
 281.12             346.028             446.4078            380.0442            380.0442            445.0631            381.3889           -100.3798
 280.97             348.099             443.9277            380.1222            380.1222            442.6139            381.4359           -95.82867
 280.82             369.068             441.5732            380.1806            380.1806            440.2893            381.4645           -72.50522
 280.67             404.072             439.334             380.2197            380.2197            438.0789            381.4747           -35.26196
 280.52             390.836             437.2068            380.2466            380.2466            435.9796            381.4738           -46.37076
 280.37             399.59              435.1405            380.2183            380.2183            433.9403            381.4185           -35.55048
 280.22             450.58              433.3741            380.3824            380.3824            432.2001            381.5564            17.20584
 280.07             391.617             431.5432            380.3817            380.3817            430.3944            381.5304           -39.92621
 279.92             376.791             429.9383            380.5136            380.5136            428.814             381.6379           -53.14731
 279.77             345.708             428.3095            380.535             380.535             427.2089            381.6356           -82.60147
 279.62             443.337             426.7116            380.5055            380.5055            425.6339            381.5832            16.6254
 279.47             390.776             425.2844            380.5706            380.5706            424.2289            381.6261           -34.50839
 279.32             326.411             423.9069            380.6142            380.6142            422.873             381.6481           -97.49591
 279.17             363.265             422.4877            380.5493            380.5493            421.4748            381.5623           -59.22272
 279.02             414.656             421.2469            380.6005            380.6005            420.2543            381.5931           -6.590942
 278.87             346.068             420.0485            380.6348            380.6348            419.0755            381.6078           -73.98053
 278.72             345.148             418.8693            380.633             380.633             417.9154            381.5869           -73.72128
 278.57             437.265             417.6327            380.5218            380.5218            416.6974            381.4572            19.63229
 278.42             342.167             416.6006            380.5659            380.5659            415.6832            381.4833           -74.43356
 278.27             374.78              415.5546            380.5503            380.5503            414.6547            381.4501           -40.77457
 278.12             346.108             414.499             380.4811            380.4811            413.6161            381.364            -68.39096
 277.97             375.13              413.4964            380.4239            380.4239            412.6301            381.2902           -38.36642
 277.82             423.629             412.5922            380.426             380.426             411.7419            381.2763            11.03683
 277.67             358.854             411.6631            380.3665            380.3665            410.8285            381.2011           -52.80911
 277.52             369.248             410.7558            380.294             380.294             409.9363            381.1135           -41.50778
 277.37             438.455             409.9739            380.3138            380.3138            409.1692            381.1185            28.48111
 277.22             248.509             409.2108            380.3212            380.3212            408.4205            381.1115           -160.7018
 277.07             403.782             408.3824            380.2335            380.2335            407.6061            381.0098           -4.600433
 276.92             360.594             407.658             380.2216            380.2216            406.8953            380.9843           -47.064
 276.77             378.001             406.8364            380.086             380.086             406.0871            380.8353           -28.83542
 276.62             379.992             406.2539            380.1638            380.1638            405.5175            380.9002           -26.26193
 276.47             424.27              405.6434            380.1895            380.1895            404.9196            380.9133            18.62656
 276.32             411.985             405.0499            380.209             380.209             404.3383            380.9206            6.93512
 276.17             402.761             404.5213            380.2717            380.2717            403.8218            380.9713           -1.760345
 276.02             380.252             403.9314            380.2522            380.2522            403.2435            380.9401           -23.67938