File: Synthesis of barbituric acid doped carbon nitride for efficient solar-driven photocatalytic degradation of aniline/data/CN-BA-XPS/XPS/1#-N1s.dat
B.E.(eV)           Raw Intensity       Peak Sum            Background          Peak 1              Peak 2              Peak 3              Peak 4              difference
 413.02             6910.71             6929.635            6910.71             6916.537            6917.911            6915.939            6911.377           -18.9248
 412.92             6960.27             6929.921            6910.697            6916.608            6918.009            6916.016            6911.381            30.34863
 412.82             6768.97             6929.926            6910.396            6916.392            6917.82             6915.806            6911.097           -160.9561
 412.72             6945.6              6930.256            6910.413            6916.495            6917.953            6915.916            6911.131            15.34375
 412.62             6839.85             6930.657            6910.491            6916.663            6918.149            6916.09             6911.228           -90.80664
 412.52             6903.84             6931.329            6910.834            6917.096            6918.613            6916.532            6911.59            -27.48926
 412.42             6974.12             6931.611            6910.779            6917.134            6918.682            6916.577            6911.554            42.50928
 412.32             7037.76             6931.873            6910.694            6917.144            6918.724            6916.596            6911.49             105.8872
 412.22             7129.45             6931.778            6910.245            6916.792            6918.405            6916.253            6911.062            197.6724
 412.12             6660.56             6931.763            6909.865            6916.511            6918.158            6915.984            6910.705           -271.2026
 412.02             6598.35             6933.187            6910.916            6917.663            6919.345            6917.146            6911.779           -334.8369
 411.92             6987.48             6934.459            6911.804            6918.656            6920.374            6918.151            6912.691            53.021
 411.82             6555.24             6934.682            6911.633            6918.591            6920.346            6918.098            6912.545           -379.4414
 411.72             6621.1              6936.552            6913.099            6920.166            6921.959            6919.687            6914.038           -315.4521
 411.62             6754.44             6937.492            6913.624            6920.802            6922.634            6920.337            6914.59            -183.0518
 411.52             6580.28             6938.654            6914.359            6921.651            6923.524            6921.202            6915.354           -358.3745
 411.42             6750.38             6940.198            6915.464            6922.873            6924.788            6922.44             6916.49            -189.8179
 411.32             6540.73             6941.909            6916.725            6924.253            6926.211            6923.837            6917.781           -401.1787
 411.22             6251.75             6944.291            6918.644            6926.294            6928.297            6925.898            6919.733           -692.541
 411.12             6603.46             6946.973            6920.849            6928.625            6930.673            6928.248            6921.973           -343.5127
 411.02             6429.46             6949.371            6922.756            6930.661            6932.757            6930.305            6923.916           -519.9106
 410.92             6541.49             6951.783            6924.664            6932.7              6934.845            6932.367            6925.861           -410.2925
 410.82             6086.3              6953.729            6926.09             6934.262            6936.458            6933.953            6927.328           -867.4292
 410.72             6338.41             6957.446            6929.272            6937.582            6939.83             6937.299            6930.551           -619.0361
 410.62             6606.96             6960.541            6931.815            6940.267            6942.569            6940.011            6933.138           -353.5806
 410.52             6346.88             6963.297            6934.003            6942.601            6944.959            6942.375            6935.373           -616.4175
 410.42             6356                6966.589            6936.709            6945.457            6947.873            6945.261            6938.127           -610.5889
 410.32             6256.48             6969.84             6939.356            6948.257            6950.733            6948.093            6940.825           -713.3599
 410.22             6126.07             6973.645            6942.537            6951.595            6954.134            6951.467            6944.06            -847.5747
 410.12             6262.14             6977.3              6945.549            6954.769            6957.372            6954.677            6947.129           -715.1602
 410.02             6243.25             6980.744            6948.329            6957.715            6960.384            6957.663            6949.969           -737.4941
 409.92             6239.11             6984.435            6951.333            6960.89             6963.627            6960.879            6953.037           -745.3247
 409.82             6351.05             6987.955            6954.143            6963.875            6966.685            6963.909            6955.915           -636.9048
 409.72             6250.14             6990.936            6956.391            6966.304            6969.187            6966.385            6958.234           -740.7959
 409.62             5971.01             6994.84             6959.536            6969.634            6972.594            6969.765            6961.456           -1023.83
 409.52             6437.3              6999.055            6962.965            6973.253            6976.293            6973.438            6964.966           -561.7549
 409.42             6088.36             7002.631            6965.729            6976.212            6979.335            6976.454            6967.815           -914.271
 409.32             6222.51             7006.71             6968.965            6979.65             6982.859            6979.953            6971.143           -784.2007
 409.22             6113.01             7011.029            6972.41             6983.303            6986.601            6983.669            6974.686           -898.019
 409.12             6167.38             7015.259            6975.734            6986.84             6990.23             6987.275            6978.115           -847.8789
 409.02             6210.73             7019.528            6979.062            6990.389            6993.875            6990.896            6981.555           -808.7979
 408.92             6127.17             7023.715            6982.272            6993.825            6997.412            6994.41             6984.885           -896.5449
 408.82             6182.22             7027.984            6985.526            6997.313            7001.003            6997.979            6988.268           -845.7637
 408.72             5963.97             7032.215            6988.701            7000.728            7004.527            7001.482            6991.582           -1068.245
 408.62             6192.08             7037.188            6992.576            7004.85             7008.762            7005.697            6995.605           -845.1079
 408.52             6210.08             7041.599            6995.841            7008.371            7012.401            7009.317            6999.032           -831.519
 408.42             6313.1              7045.537            6998.586            7011.379            7015.532            7012.432            7001.952           -732.437
 408.32             6488.16             7049.566            7001.369            7014.435            7018.715            7015.6              7004.924           -561.4063
 408.22             6169.34             7053.37             7003.87             7017.217            7021.631            7018.502            7007.63            -884.0298
 408.12             6454.75             7057.548            7006.688            7020.325            7024.878            7021.738            7010.672           -602.7983
 408.02             6997.27             7060.564            7008.28             7022.216            7026.915            7023.766            7012.508           -63.29443
 407.92             6396.17             7063.033            7009.255            7023.5              7028.352            7025.197            7013.75            -666.8628
 407.82             6691.91             7067.248            7011.903            7026.468            7031.479            7028.32             7016.691           -375.3379
 407.72             6627.17             7070.251            7013.26             7028.156            7033.332            7030.174            7018.37            -443.0815
 407.62             6775.11             7072.873            7014.147            7029.385            7034.735            7031.582            7019.613           -297.7632
 407.52             6633.99             7076.049            7015.495            7031.087            7036.62             7033.474            7021.354           -442.0591
 407.42             6871.01             7079.258            7016.774            7032.732            7038.456            7035.323            7023.07            -208.2485
 407.32             6751.93             7081.954            7017.425            7033.763            7039.686            7036.571            7024.208           -330.0234
 407.22             6924.13             7085.34             7018.643            7035.374            7041.507            7038.417            7025.972           -161.2104
 407.12             6838.92             7088.063            7019.059            7036.197            7042.551            7039.491            7027.001           -249.1431
 407.02             6891.93             7091.769            7020.304            7037.865            7044.451            7041.427            7028.938           -199.8389
 406.92             6811.26             7094.86             7020.765            7038.764            7045.592            7042.614            7030.184           -283.6006
 406.82             6979.33             7098.259            7021.335            7039.79             7046.874            7043.95             7031.651           -118.9287
 406.72             7079.04             7101.766            7021.793            7040.719            7048.073            7045.213            7033.139           -22.72559
 406.62             6554.2              7105.516            7022.232            7041.649            7049.287            7046.501            7034.774           -551.3159
 406.52             7177.93             7110.313            7023.404            7043.331            7051.268            7048.569            7037.356            67.61768
 406.42             6930.84             7113.946            7023.008            7043.465            7051.718            7049.12             7038.668           -183.106
 406.32             6959.23             7118.749            7023.215            7044.224            7052.809            7050.327            7041.034           -159.519
 406.22             6825.55             7124.121            7023.117            7044.7              7053.638            7051.288            7043.847           -298.5708
 406.12             7105.16             7131.253            7023.33             7045.511            7054.82             7052.621            7048.291           -26.09326
 406.02             7107.24             7140.203            7022.85             7045.654            7055.357            7053.331            7054.411           -32.96289
 405.92             7244.79             7153.614            7022.528            7045.981            7056.102            7054.271            7064.843            91.17578
 405.82             7250.77             7173.873            7021.914            7046.045            7056.607            7055                7081.962            76.89746
 405.72             7171.13             7204.981            7020.998            7045.836            7056.868            7055.512            7109.757           -33.85107
 405.62             7262.82             7252.459            7020.273            7045.852            7057.38             7056.311            7153.737            10.36035
 405.52             7594.35             7320.803            7018.939            7045.29             7057.348            7056.601            7218.381            273.5474
 405.42             7692.38             7413.786            7016.656            7043.814            7056.436            7056.054            7307.45             278.5938
 405.32             7698.23             7532.6              7013.5              7041.503            7054.726            7054.756            7422.114            165.6304
 405.22             7600.28             7674.439            7010.719            7039.607            7053.47             7053.966            7559.552           -74.15918
 405.12             7905.82             7828.418            7007.918            7037.735            7052.28             7053.304            7708.854            77.40137
 405.02             8002.24             7976.596            7004.366            7035.156            7050.432            7052.051            7852.056            25.64404
 404.92             8066.92             8096.367            7000.084            7031.896            7047.953            7050.245            7966.527           -29.44727
 404.82             8413.93             8165.029            6996.06             7028.944            7045.838            7048.892            8029.534            248.9004
 404.72             8013.18             8164.59             6990.607            7024.62             7042.413            7046.329            8023.051           -151.4097
 404.62             7701.77             8098.081            6986.455            7021.654            7040.412            7045.306            7950.075           -396.311
 404.52             8243.04             7981.523            6982.914            7019.363            7039.158            7045.162            7826.583            261.5166
 404.42             8157.76             7836.298            6977.408            7015.174            7036.086            7043.351            7673.912            321.4619
 404.32             8068.91             7687.834            6972.9              7012.055            7034.173            7042.872            7517.434            381.0757
 404.22             7699.41             7552.672            6968.779            7009.401            7032.822            7043.157            7373.628            146.7378
 404.12             7428.26             7442.286            6966.132            7008.306            7033.136            7045.341            7253.9             -14.02588
 404.02             7569.26             7359.469            6963.8              7007.614            7033.972            7048.32             7160.962            209.7905
 403.92             7363.42             7303.288            6961.894            7007.446            7035.461            7052.275            7093.787            60.13184
 403.82             7047.36             7269.769            6960.546            7007.941            7037.76             7057.431            7048.274           -222.4092
 403.72             6915.86             7254.598            6960.563            7009.915            7041.699            7064.708            7019.964           -338.7378
 403.62             6656.03             7252.288            6961.248            7012.68             7046.608            7073.574            7003.169           -596.2583
 403.52             6471.18             7259.057            6962.499            7016.145            7052.419            7084.171            6993.818           -787.8765
 403.42             6417.35             7272.666            6964.448            7020.451            7059.297            7097.002            6989.259           -855.3159
 403.32             6145.38             7292.212            6967.298            7025.817            7067.489            7112.872            6987.928           -1146.833
 403.22             5903.14             7317.57             6970.943            7032.151            7076.934            7132.623            6988.691           -1414.43
 403.12             6373.47             7349.42             6975.052            7039.137            7087.354            7157.429            6990.657           -975.9502
 403.02             5861.35             7388.361            6978.099            7045.267            7097.284            7188.1              6992.006           -1527.011
 402.92             6155.97             7440.274            6982.52             7052.996            7109.231            7230.582            6995.024           -1284.304
 402.82             5867.37             7508.186            6986.169            7060.203            7121.138            7287.869            6997.483           -1640.815
 402.72             6434.63             7600.031            6989.783            7067.648            7133.842            7367.82             7000.071           -1165.401
 402.62             6686.85             7723.925            6991.877            7073.876            7145.986            7478.421            7001.272           -1037.075
 402.52             6470.71             7892.843            6993.351            7079.818            7158.64             7632.473            7001.963           -1422.133
 402.42             7297.59             8121.072            6994.298            7085.604            7172.127            7844.014            7002.221           -823.4819
 402.32             7991.54             8421.977            6992.337            7088.896            7184.411            8126.03             6999.649           -430.4365
 402.22             8903.18             8810.398            6986.925            7089.199            7195.463            8492.817            6993.693            92.78125
 402.12             9686.24             9299.269            6977.883            7086.389            7205.909            8956.455            6984.166            386.9717
 402.02             10085.9             9897.591            6966.062            7081.378            7217.87             9524.619            6971.908            188.3096
 401.92             11175.7             10605.35            6951.218            7073.997            7233.089            10195.24            6956.673            570.3506
 401.82             12552.5             11412.3             6932.23             7063.215            7253.539            10954.91            6937.331            1140.197
 401.72             13235.8             12296.22            6908.082            7048.118            7282.824            11776.66            6912.86             939.583
 401.62             13668               13226.57            6880.955            7031.022            7329.867            12623.11            6885.441            441.4277
 401.52             14572.9             14161.09            6851.749            7013.004            7405.011            13442.35            6855.969            411.8105
 401.42             15070.8             15047.54            6819.36             6993.216            7519.766            14169.3             6823.337            23.2627
 401.32             15679.5             15833.24            6783.681            6971.976            7690.276            14734.6             6787.435           -153.7422
 401.22             15880.5             16474.23            6746.745            6952.036            7938.026            15074.11            6750.294           -593.7266
 401.12             16288.7             16945.84            6708.005            6934.153            8284.399            15139.94            6711.365           -657.1396
 401.02             16839.1             17259.45            6667.932            6921.188            8752.476            14918.46            6671.118           -420.3496
 400.92             16942.1             17463.51            6625.971            6916.905            9362.031            14433.48            6628.996           -521.4063
 400.82             17310.2             17634.96            6582.383            6929.249            10128.62            13738.98            6585.259           -324.7598
 400.72             18189.6             17859.47            6536.48             6970.604            11056.48            12902.61            6539.218            330.1289
 400.62             18911.3             18217.44            6487.165            7061.291            12135.76            11992.11            6489.774            693.8633
 400.52             19343.2             18777.26            6434.265            7234.604            13340.24            11068.46            6436.754            565.9375
 400.42             20195.2             19593.21            6378.776            7541.053            14625.08            10182.25            6381.154            601.9922
 400.32             21141.1             20704.85            6319.604            8049.317            15924.79            9367.672            6321.876            436.25
 400.22             22985.5             22141.26            6256.024            8850.05             17154.72            8646.359            6258.2              844.2422
 400.12             23911.4             23923.77            6185.983            10052.84            18215.09            8025.725            6188.067           -12.36719
 400.02             25302.2             26073.07            6110.04             11782.66            19003.14            7505.348            6112.038           -770.873
 399.92             28346.1             28607.96            6027.222            14160.17            19424.56            7075.753            6029.139           -261.8613
 399.82             31566.1             31546.33            5930.253            17277.84            19410.93            6716.223            5932.094            19.76563
 399.72             34135               34909.17            5820.628            21182.66            18952.82            6413.186            5822.397           -774.1719
 399.62             38459.3             38689.68            5698.241            25839.12            18093.84            6151.498            5699.943           -230.3789
 399.52             42575.8             42810.04            5555.962            31099.09            16910.71            5910.525            5557.6             -234.2344
 399.42             47310.8             47102.59            5395.345            36704               15507.11            5680.588            5396.923            208.2148
 399.32             52408               51293.93            5216.798            42288.88            13983.88            5453.241            5218.319            1114.07
 399.22             55358.8             55008.6             5014.919            47394.81            12425.6             5216.557            5016.386            350.2031
 399.12             59014               57839.24            4800.603            51546.59            10915.66            4976.789            4802.019            1174.758
 399.02             59900.7             59380.96            4572.302            54289.43            9505.54             4729.229            4573.669            519.7422
 398.92             59326.6             59337.18            4341.888            55295.27            8240.684            4483.673            4343.209           -10.57422
 398.82             57728.4             57576.34            4113.974            54419.54            7140.08             4243.394            4115.251            152.0586
 398.72             53860.5             54180.59            3892.884            51745.13            6208.116            4011.884            3894.12            -320.0938
 398.62             49938               49434.48            3688.126            47568.77            5442.641            3798.127            3689.323            503.5156
 398.52             43776.5             43745.96            3500.325            42317.62            4825.421            3602.415            3501.484            30.53516
 398.42             37865.9             37586.61            3337.853            36485.58            4342.712            3432.904            3338.975            279.2891
 398.32             30620.4             31400.89            3202.743            30539.91            3973.906            3291.475            3203.832           -780.4902
 398.22             25059.3             25566.67            3092.642            24879.04            3696.195            3175.668            3093.697           -507.3711
 398.12             20027.7             20360.06            3006.298            19796.64            3490.84             3084.149            3007.322           -332.3594
 398.02             15921.7             15940.67            2939.875            15466.4             3340.015            3013.017            2940.869           -18.97363
 397.92             12147.8             12361.73            2889.791            11952.18            3229.532            2958.635            2890.757           -213.9268
 397.82             9708.72             9588.37             2854.571            9226.914            3150.18             2919.479            2855.51             120.3496
 397.72             7602.25             7525.142            2827.981            7200.534            3090.38             2889.278            2828.893            77.1084
 397.62             6250.4              6049.959            2809.167            5754.596            3045.669            2867.143            2810.054            200.4404
 397.52             5755.93             5032.069            2795.53             4760.735            3011.088            2850.444            2796.393            723.8608
 397.42             4869.14             4350.625            2784.389            4099.638            2982.451            2836.476            2785.229            518.5146
 397.32             4038.74             3906.49             2776.215            3673.161            2959.258            2825.685            2777.032            132.2498
 397.22             4024.22             3622.7              2770.822            3404.963            2940.72             2817.865            2771.617            401.52
 397.12             3814.89             3440.889            2765.837            3237.094            2924.067            2810.627            2766.612            374.0012
 397.02             3659.5              3323.04             2761.646            3131.821            2909.417            2804.339            2762.402            336.4597
 396.92             3570.51             3243.899            2757.964            3064.089            2896.299            2798.704            2758.7              326.6113
 396.82             3224.49             3188.139            2755.018            3018.733            2884.79             2793.933            2755.736            36.35132
 396.72             3106.53             3147.106            2753.356            2987.219            2875.333            2790.566            2754.056           -40.57617
 396.62             3242.5              3113.96             2751.443            2962.807            2866.299            2787.057            2752.126            128.54
 396.52             3071.65             3085.781            2749.332            2942.662            2857.667            2783.45             2749.999           -14.13135
 396.42             2919.42             3061.857            2747.957            2926.145            2850.305            2780.671            2748.608           -142.437
 396.32             3071.15             3040.893            2746.967            2912.026            2843.804            2778.36             2747.602            30.25708
 396.22             3111.17             3021.589            2745.603            2899.062            2837.358            2775.754            2746.224            89.58081
 396.12             2857.53             3004.278            2744.547            2887.632            2831.605            2773.527            2745.153           -146.7483
 396.02             2909.6              2988.445            2743.524            2877.265            2826.234            2771.401            2744.117           -78.84473
 395.92             2909.86             2974.529            2743.154            2868.437            2821.831            2769.988            2743.733           -64.66895
 395.82             3043.66             2961.197            2742.256            2859.852            2817.185            2768.106            2742.823            82.46289
 395.72             2823.69             2948.861            2741.363            2851.95             2812.802            2766.28             2741.917           -125.1711
 395.62             2815.77             2937.968            2741.024            2845.204            2809.211            2765.058            2741.566           -122.1975
 395.52             2801.13             2928.018            2740.832            2839.14             2805.981            2764.029            2741.362           -126.8877
 395.42             2646.48             2918.664            2740.514            2833.431            2802.824            2762.917            2741.034           -272.1836
 395.32             2810.01             2910.342            2740.584            2828.535            2800.233            2762.233            2741.092           -100.3318
 395.22             2870.38             2902.026            2740.072            2823.442            2797.227            2761.004            2740.57            -31.64648
 395.12             2776.13             2894.861            2740.177            2819.311            2794.989            2760.426            2740.664           -118.7307
 395.02             2738.04             2887.446            2739.547            2814.757            2792.157            2759.147            2740.024           -149.4055
 394.92             2801.56             2881.067            2739.508            2811.079            2790.046            2758.49             2739.977           -79.50684
 394.82             2646.01             2874.806            2739.186            2807.371            2787.77             2757.577            2739.644           -228.7964
 394.72             2694                2869.159            2739.105            2804.139            2785.847            2756.934            2739.555           -175.1589
 394.62             2822.17             2863.733            2738.906            2801                2783.907            2756.197            2739.347           -41.56323
 394.52             2680.65             2858.9              2738.988            2798.335            2782.343            2755.765            2739.42            -178.2502
 394.42             2895.6              2854.316            2739.028            2795.808            2780.826            2755.314            2739.452            41.28418
 394.32             2767.97             2849.4              2738.473            2792.845            2778.795            2754.288            2738.889           -81.42993
 394.22             2840.24             2845.094            2738.281            2790.396            2777.204            2753.646            2738.689           -4.853516
 394.12             2747.99             2840.77             2737.844            2787.839            2775.44             2752.779            2738.245           -92.77954
 394.02             2852.71             2837.018            2737.769            2785.769            2774.104            2752.29             2738.163            15.69214
 393.92             2660.59             2833.054            2737.285            2783.407            2772.421            2751.41             2737.671           -172.4636
 393.82             2591.03             2830.269            2737.8              2782.152            2771.794            2751.544            2738.179           -239.2393
 393.72             2711.87             2827.391            2738.051            2780.732            2770.959            2751.429            2738.423           -115.5205
 393.62             2968.04             2824.346            2737.978            2779.08             2769.851            2751.006            2738.344            143.6938
 393.52             2689.57             2820.807            2737.264            2776.873            2768.149            2749.954            2737.623           -131.2368
 393.42             2722.72             2818.246            2737.388            2775.584            2767.331            2749.754            2737.741           -95.52563
 393.32             2687.47             2815.727            2737.427            2774.284            2766.47             2749.481            2737.774           -128.2568
 393.22             2709.2              2813.617            2737.755            2773.341            2765.938            2749.508            2738.096           -104.4172
 393.12             2878.32             2811.117            2737.58             2771.959            2764.939            2749.043            2737.915            67.20288
 393.02             2688.14             2808.729            2737.409            2770.643            2763.981            2748.594            2737.739           -120.5891
 392.92             2693.6              2806.607            2737.406            2769.55             2763.224            2748.321            2737.729           -113.0071
 392.82             2776.72             2804.709            2737.532            2768.638            2762.627            2748.188            2737.85            -27.98877
 392.72             2665.68             2802.761            2737.521            2767.639            2761.924            2747.927            2737.833           -137.0813
 392.62             2703.6              2801.005            2737.617            2766.794            2761.356            2747.781            2737.925           -97.40454
 392.52             2653.52             2799.381            2737.768            2766.046            2760.868            2747.699            2738.071           -145.8606
 392.42             2724.34             2798.01             2738.097            2765.518            2760.585            2747.803            2738.395           -73.66992
 392.32             2651.46             2796.304            2738.021            2764.623            2759.921            2747.509            2738.314           -144.844
 392.22             2745.06             2794.806            2738.088            2763.906            2759.422            2747.365            2738.376           -49.74634
 392.12             2825.04             2793.417            2738.2              2763.269            2758.99             2747.274            2738.484            31.62305
 392.02             2848.75             2791.598            2737.824            2762.175            2758.09             2746.701            2738.104            57.15161
 391.92             2726.02             2789.92             2737.531            2761.196            2757.294            2746.218            2737.807           -63.89966
 391.82             2748.13             2788.358            2737.302            2760.308            2756.579            2745.804            2737.573           -40.22803
 391.72             2660.83             2787.164            2737.391            2759.765            2756.2              2745.714            2737.658           -126.334
 391.62             2722                2785.945            2737.406            2759.175            2755.763            2745.555            2737.669           -63.94482
 391.52             2797.25             2784.87             2737.52             2758.707            2755.442            2745.501            2737.779            12.37988
 391.42             2686.86             2783.372            2737.166            2757.795            2754.669            2744.985            2737.421           -96.51172
 391.32             2755.57             2782.614            2737.512            2757.604            2754.61             2745.173            2737.764           -27.04395
 391.22             2591.25             2781.74             2737.702            2757.278            2754.408            2745.21             2737.95            -190.4895
 391.12             2612.21             2781.264            2738.254            2757.333            2754.582            2745.614            2738.498           -169.0542
 391.02             2734.86             2780.969            2738.95             2757.551            2754.912            2746.165            2739.19            -46.10864
 390.92             2659.12             2779.863            2738.8              2756.941            2754.409            2745.876            2739.037           -120.7424
 390.82             2627.21             2779.017            2738.88             2756.577            2754.146            2745.819            2739.113           -151.8069
 390.72             2699.75             2778.527            2739.283            2756.553            2754.219            2746.091            2739.514           -78.7771
 390.62             2852.53             2777.731            2739.351            2756.209            2753.967            2746.03             2739.578            74.79907
 390.52             2699.74             2776.767            2739.223            2755.683            2753.529            2745.777            2739.447           -77.0271
 390.42             2682.17             2776.289            2739.553            2755.629            2753.559            2745.986            2739.774           -94.1189
 390.32             2612.87             2775.441            2739.487            2755.193            2753.202            2745.802            2739.705           -162.5708
 390.22             2679.65             2775.192            2739.996            2755.344            2753.429            2746.196            2740.211           -95.54199
 390.12             2597.8              2774.751            2740.288            2755.291            2753.448            2746.377            2740.5             -176.9507
 390.02             2749.98             2774.106            2740.354            2755.022            2753.249            2746.334            2740.563           -24.12573
 389.92             2881.74             2773.622            2740.559            2754.904            2753.197            2746.433            2740.766            108.1179
 389.82             2936.15             2772.333            2739.938            2753.97             2752.326            2745.709            2740.141            163.8171
 389.72             2697.1              2771.283            2739.536            2753.266            2751.682            2745.207            2739.737           -74.18286
 389.62             2926.91             2770.962            2739.844            2753.281            2751.754            2745.417            2740.042            155.9475
 389.52             2805.58             2769.643            2739.135            2752.288            2750.817            2744.612            2739.33             35.93701
 389.42             2853.1              2768.819            2738.903            2751.781            2750.363            2744.288            2739.096            84.28076
 389.32             2561.62             2768.217            2738.875            2751.488            2750.12             2744.17             2739.066           -206.5969
 389.22             2680.55             2767.907            2739.124            2751.478            2750.159            2744.33             2739.312           -87.35718
 389.12             2774.32             2767.365            2739.125            2751.229            2749.956            2744.245            2739.311            6.95459
 389.02             2738.88             2766.593            2738.88             2750.741            2749.512            2743.916            2739.063           -27.71289