File: Synthesis of barbituric acid doped carbon nitride for efficient solar-driven photocatalytic degradation of aniline/data/CN-BA-XPS/XPS/1#-O1s.txt
546.02	8435.31
545.97	8324.3
545.92	8584.05
545.87	8405.34
545.82	8387.57
545.77	8794.05
545.72	8456.15
545.67	8574.88
545.62	8387.21
545.57	8278.41
545.52	8352.77
545.47	8365.37
545.42	8411.63
545.37	8281.8
545.32	8415.08
545.27	8685.96
545.22	8732.83
545.17	8399.22
545.12	8403.4
545.07	8447.76
545.02	8461.66
544.97	8319.24
544.92	8270.74
544.87	8277.8
544.82	8478.88
544.77	8652.2
544.72	8580.76
544.67	8226.7
544.62	8461.12
544.57	8405.1
544.52	8466.5
544.47	8323.25
544.42	8468.16
544.37	8703.9
544.32	8436.57
544.27	8229.55
544.22	8334.76
544.17	8368.29
544.12	8534.75
544.07	8336.14
544.02	8257.86
543.97	8373.89
543.92	8280.15
543.87	8281.76
543.82	8709.77
543.77	8318.19
543.72	8110.79
543.67	8497.44
543.62	8392.43
543.57	8233.33
543.52	8273.13
543.47	8365.05
543.42	8389.54
543.37	8262.12
543.32	8169.33
543.27	8298.42
543.22	8742.37
543.17	8571.83
543.12	8731.83
543.07	8542.52
543.02	8423.89
542.97	8126.33
542.92	8374.87
542.87	8422.76
542.82	8197.68
542.77	8386.91
542.72	8576.96
542.67	8264.54
542.62	8371.09
542.57	8491.23
542.52	8579.37
542.47	8550.83
542.42	8494.85
542.37	8478.22
542.32	8532.52
542.27	8492.56
542.22	8488.44
542.17	8333.76
542.12	8293.93
542.07	8371.72
542.02	8186.61
541.97	8281.45
541.92	8418.82
541.87	8433.49
541.82	8347.47
541.77	8451.32
541.72	8536.9
541.67	8148.71
541.62	8431.2
541.57	8303.02
541.52	8406.91
541.47	8488.16
541.42	8292.9
541.37	8364.63
541.32	8426.04
541.27	8504.95
541.22	8279.67
541.17	8664.27
541.12	8596.46
541.07	8463.52
541.02	8335.24
540.97	8380.87
540.92	8482.66
540.87	8323.62
540.82	8769.13
540.77	8607.94
540.72	8419.84
540.67	8525.67
540.62	8541.71
540.57	8402.22
540.52	8445.62
540.47	8471.11
540.42	8586.73
540.37	8576.34
540.32	8388.64
540.27	8541.15
540.22	8730.54
540.17	8461.69
540.12	8539.81
540.07	8214.78
540.02	8343.94
539.97	8444.18
539.92	8766.96
539.87	8607.47
539.82	8545.39
539.77	8646.03
539.72	8634.28
539.67	8360.38
539.62	8238.32
539.57	8417.93
539.52	8322.22
539.47	8516.02
539.42	8631.39
539.37	8814.43
539.32	8367.4
539.27	8314.11
539.22	8626.95
539.17	8382.31
539.12	8583.8
539.07	8670.68
539.02	8555.62
538.97	8413.91
538.92	8653.23
538.87	8546.87
538.82	8335.99
538.77	8327.56
538.72	8559.7
538.67	8276.15
538.62	8671.18
538.57	8515.53
538.52	8119.65
538.47	8158.34
538.42	8129.74
538.37	8642.13
538.32	8551.6
538.27	8393.03
538.22	8404.39
538.17	8166.48
538.12	8368.47
538.07	8367.93
538.02	8390.63
537.97	8597.87
537.92	8224.07
537.87	8617.75
537.82	8690.9
537.77	8160.19
537.72	8026.47
537.67	8454.95
537.62	8522.27
537.57	8342.67
537.52	8449.38
537.47	8711.74
537.42	8436.26
537.37	8431.85
537.32	8557.36
537.27	8349.58
537.22	8321.59
537.17	8635.43
537.12	8337.16
537.07	8480.05
537.02	8639.36
536.97	8374.51
536.92	8472.26
536.87	8644.76
536.82	8410.44
536.77	8581.64
536.72	8415.68
536.67	8234.04
536.62	8522.9
536.57	8330.97
536.52	8419.8
536.47	8103.28
536.42	8467.23
536.37	8857.56
536.32	8504.35
536.27	8460.1
536.22	8526.67
536.17	8249.47
536.12	8340.67
536.07	8265.26
536.02	8301.52
535.97	8243
535.92	8375.13
535.87	8540.14
535.82	8212.6
535.77	8457.92
535.72	8577
535.67	8386.54
535.62	8774.48
535.57	8540.45
535.52	8772.82
535.47	8782.65
535.42	8636.49
535.37	8554.14
535.32	8317.49
535.27	8163.39
535.22	8431.78
535.17	8559.31
535.12	8623.53
535.07	8595.57
535.02	8824.32
534.97	8619.49
534.92	8464.93
534.87	8826.8
534.82	8852.06
534.77	9044.41
534.72	9017.89
534.67	8591.7
534.62	8875.32
534.57	8968.37
534.52	8572.15
534.47	8866.79
534.42	8955.1
534.37	8831.09
534.32	9106.09
534.27	9040.22
534.22	9356.28
534.17	9371.59
534.12	9195.33
534.07	9422.6
534.02	9444.44
533.97	9367.38
533.92	9516.35
533.87	9895.84
533.82	9769.73
533.77	9736.82
533.72	9985.06
533.67	10118.2
533.62	9803.61
533.57	9935.91
533.52	10478.2
533.47	10670.6
533.42	10758.3
533.37	10284.4
533.32	10471.9
533.27	11083
533.22	10658.5
533.17	10848.3
533.12	10896.1
533.07	10978.4
533.02	11152.1
532.97	11200.2
532.92	11330.3
532.87	11612.7
532.82	11886.4
532.77	11984.2
532.72	11724.5
532.67	11832
532.62	11988.6
532.57	12124.6
532.52	12199.7
532.47	12292.6
532.42	12354.5
532.37	12149.8
532.32	12061.3
532.27	12182.1
532.22	12406.7
532.17	12096.4
532.12	12518.2
532.07	12516
532.02	12105.3
531.97	12559.8
531.92	11946.1
531.87	11996.9
531.82	11520.6
531.77	11334.4
531.72	11297.8
531.67	11739.3
531.62	11237.3
531.57	10902.4
531.52	10356.6
531.47	10924.2
531.42	10431.5
531.37	10253.5
531.32	10386.2
531.27	10145.5
531.22	10130.3
531.17	10077.5
531.12	9912.16
531.07	9696.9
531.02	9430.72
530.97	9371.13
530.92	9497.34
530.87	9385.16
530.82	9398.34
530.77	9332.93
530.72	9309.58
530.67	9168.43
530.62	9079.49
530.57	8995.83
530.52	9152.24
530.47	9137.33
530.42	8885.55
530.37	8880.79
530.32	8825.8
530.27	8813.62
530.22	8823.96
530.17	8728.67
530.12	8681.69
530.07	8593.98
530.02	8302.75
529.97	8277.05
529.92	8623.68
529.87	8717.92
529.82	8375.38
529.77	8070.4
529.72	8502.91
529.67	8613.45
529.62	8946.2
529.57	8879.21
529.52	8452.85
529.47	8407.91
529.42	8642.56
529.37	8270.92
529.32	8220.11
529.27	8451.86
529.22	8167.48
529.17	8458.5
529.12	8459.45
529.07	8628.19
529.02	8451.57
528.97	8185.2
528.92	8338.05
528.87	8116.62
528.82	8133.98
528.77	8525.35
528.72	8419.03
528.67	8104.22
528.62	8365.79
528.57	8157.88
528.52	8389.8
528.47	8291.58
528.42	8476.35
528.37	8644.64
528.32	8324.86
528.27	8498.62
528.22	8334.12
528.17	8249.42
528.12	8213.24
528.07	8125.54
528.02	8437.45
527.97	8331.19
527.92	8225.31
527.87	8466.83
527.82	8300.73
527.77	7919.53
527.72	8150.83
527.67	8227.59
527.62	8366.85
527.57	8518.13
527.52	8270.92
527.47	8454.44
527.42	8386.05
527.37	8048.33
527.32	8423.9
527.27	8699.33
527.22	8621.5
527.17	8381.59
527.12	8378.87
527.07	8274.88
527.02	8469.99
526.97	8206.76
526.92	8332.22
526.87	8609.06
526.82	8630.54
526.77	8362.22
526.72	8362.9
526.67	8537.56
526.62	8531.48
526.57	8346.1
526.52	8301.67
526.47	8202.73
526.42	8308.09
526.37	8426.2
526.32	8306.23
526.27	8302.46
526.22	7948.15
526.17	8169.9
526.12	8162.36
526.07	8176.91
526.02	8316.34
525.97	8162.73
525.92	8069.26
525.87	8341.96
525.82	8569.44
525.77	8426.97
525.72	8464.92
525.67	8123.75
525.62	8437.51
525.57	8489.48
525.52	8538.86
525.47	8501.62
525.42	8186.2
525.37	8481.67
525.32	8499.14
525.27	8017.08
525.22	8202.64
525.17	8087.52
525.12	8258.62
525.07	8536.03
525.02	8586.52
524.97	8385.6
524.92	8652.33
524.87	8281.38
524.82	8388.63
524.77	8102.87
524.72	8315.11
524.67	8427.29
524.62	8417.79
524.57	8346.7
524.52	8490.08
524.47	8333.83
524.42	8275.45
524.37	8148.37
524.32	8438.7
524.27	7997.26
524.22	8039.08
524.17	8489.07
524.12	8289.79
524.07	8183.36
524.02	8243.09
523.97	8559.83
523.92	8281.45
523.87	8295.36
523.82	8420.74
523.77	8439.13
523.72	8573.88
523.67	8482.73
523.62	8365.01
523.57	8372.99
523.52	8380.78
523.47	8335.56
523.42	8205.08
523.37	8239.24
523.32	8479.33
523.27	8562.98
523.22	8521.23
523.17	8478.95
523.12	8390.93
523.07	8302.56
523.02	8506.03