File: Synthesis of barbituric acid doped carbon nitride for efficient solar-driven photocatalytic degradation of aniline/data/CN-BA-XPS/XPS/1#-O1s.dat
B.E.(eV)           Raw Intensity       Peak Sum            Background          Peak 1              difference
 546.02             8435.31             8439.826            8435.31             8439.826           -4.516602
 545.92             8584.05             8440.2              8435.617            8440.2              143.8496
 545.82             8387.57             8440.575            8435.925            8440.575           -53.00488
 545.72             8456.15             8440.953            8436.232            8440.953            15.19727
 545.62             8387.21             8441.331            8436.539            8441.331           -54.12109
 545.52             8352.77             8441.711            8436.847            8441.711           -88.94141
 545.42             8411.63             8442.093            8437.154            8442.093           -30.46289
 545.32             8415.08             8442.477            8437.462            8442.477           -27.39648
 545.22             8732.83             8442.862            8437.77             8442.862            289.9678
 545.12             8403.4              8443.25             8438.077            8443.25            -39.84961
 545.02             8461.66             8443.639            8438.385            8443.639            18.02148
 544.92             8270.74             8444.029            8438.691            8444.029           -173.2891
 544.82             8478.88             8444.423            8438.999            8444.423            34.45703
 544.72             8580.76             8444.817            8439.307            8444.817            135.9424
 544.62             8461.12             8445.215            8439.614            8445.215            15.90527
 544.52             8466.5              8445.614            8439.922            8445.614            20.88574
 544.42             8468.16             8446.017            8440.229            8446.017            22.14355
 544.32             8436.57             8446.421            8440.537            8446.421           -9.850586
 544.22             8334.76             8446.826            8440.844            8446.826           -112.0664
 544.12             8534.75             8447.235            8441.151            8447.235            87.51465
 544.02             8257.86             8447.647            8441.459            8447.647           -189.7871
 543.92             8280.15             8448.063            8441.767            8448.063           -167.9121
 543.82             8709.77             8448.479            8442.074            8448.479            261.29
 543.72             8110.79             8448.899            8442.382            8448.899           -338.1094
 543.62             8392.43             8449.322            8442.689            8449.322           -56.89258
 543.52             8273.13             8449.749            8442.997            8449.749           -176.6191
 543.42             8389.54             8450.178            8443.304            8450.178           -60.6377
 543.32             8169.33             8450.61             8443.611            8450.61            -281.2803
 543.22             8742.37             8451.046            8443.919            8451.046            291.3242
 543.12             8731.83             8451.486            8444.227            8451.486            280.3438
 543.02             8423.89             8451.93             8444.534            8451.93            -28.04004
 542.92             8374.87             8452.377            8444.842            8452.377           -77.50684
 542.82             8197.68             8452.828            8445.149            8452.828           -255.1484
 542.72             8576.96             8453.282            8445.456            8453.282            123.6777
 542.62             8371.09             8453.742            8445.764            8453.742           -82.65234
 542.52             8579.37             8454.206            8446.071            8454.206            125.1641
 542.42             8494.85             8454.675            8446.379            8454.675            40.1748
 542.32             8532.52             8455.148            8446.687            8455.148            77.37109
 542.22             8488.44             8455.627            8446.994            8455.627            32.81348
 542.12             8293.93             8456.111            8447.302            8456.111           -162.1816
 542.02             8186.61             8456.6              8447.608            8456.6             -269.9897
 541.92             8418.82             8457.095            8447.916            8457.095           -38.27441
 541.82             8347.47             8457.596            8448.224            8457.596           -110.126
 541.72             8536.9              8458.103            8448.531            8458.103            78.79785
 541.62             8431.2              8458.615            8448.839            8458.615           -27.41504
 541.52             8406.91             8459.136            8449.146            8459.136           -52.22559
 541.42             8292.9              8459.663            8449.454            8459.663           -166.7627
 541.32             8426.04             8460.196            8449.761            8460.196           -34.15625
 541.22             8279.67             8460.738            8450.068            8460.738           -181.0684
 541.12             8596.46             8461.287            8450.376            8461.287            135.1729
 541.02             8335.24             8461.846            8450.684            8461.846           -126.6055
 540.92             8482.66             8462.412            8450.991            8462.412            20.24805
 540.82             8769.13             8462.988            8451.299            8462.988            306.1416
 540.72             8419.84             8463.573            8451.606            8463.573           -43.7334
 540.62             8541.71             8464.168            8451.913            8464.168            77.54199
 540.52             8445.62             8464.773            8452.221            8464.773           -19.15332
 540.42             8586.73             8465.391            8452.528            8465.391            121.3398
 540.32             8388.64             8466.019            8452.836            8466.019           -77.37891
 540.22             8730.54             8466.659            8453.144            8466.659            263.8809
 540.12             8539.81             8467.312            8453.451            8467.312            72.49805
 540.02             8343.94             8467.979            8453.759            8467.979           -124.0381
 539.92             8766.96             8468.658            8454.066            8468.658            298.3018
 539.82             8545.39             8469.353            8454.373            8469.353            76.03711
 539.72             8634.28             8470.063            8454.681            8470.063            164.2168
 539.62             8238.32             8470.79             8454.988            8470.79            -232.4697
 539.52             8322.22             8471.534            8455.296            8471.534           -149.3145
 539.42             8631.39             8472.297            8455.604            8472.297            159.0928
 539.32             8367.4              8473.078            8455.911            8473.078           -105.6777
 539.22             8626.95             8473.88             8456.219            8473.88             153.0703
 539.12             8583.8              8474.702            8456.525            8474.702            109.0977
 539.02             8555.62             8475.549            8456.833            8475.549            80.07129
 538.92             8653.23             8476.419            8457.141            8476.419            176.8115
 538.82             8335.99             8477.314            8457.448            8477.314           -141.3242
 538.72             8559.7              8478.237            8457.756            8478.237            81.46289
 538.62             8671.18             8479.188            8458.063            8479.188            191.9912
 538.52             8119.65             8480.171            8458.371            8480.171           -360.521
 538.42             8129.74             8481.185            8458.678            8481.185           -351.4443
 538.32             8551.6              8482.233            8458.985            8482.233            69.36621
 538.22             8404.39             8483.319            8459.293            8483.319           -78.92969
 538.12             8368.47             8484.445            8459.601            8484.445           -115.9756
 538.02             8390.63             8485.612            8459.908            8485.612           -94.98242
 537.92             8224.07             8486.824            8460.216            8486.824           -262.7539
 537.82             8690.9              8488.084            8460.523            8488.084            202.8164
 537.72             8026.47             8489.395            8460.83             8489.395           -462.9243
 537.62             8522.27             8490.762            8461.138            8490.762            31.50781
 537.52             8449.38             8492.187            8461.445            8492.187           -42.80664
 537.42             8436.26             8493.677            8461.753            8493.677           -57.41699
 537.32             8557.36             8495.234            8462.061            8495.234            62.12598
 537.22             8321.59             8496.866            8462.368            8496.866           -175.2764
 537.12             8337.16             8498.578            8462.676            8498.578           -161.418
 537.02             8639.36             8500.375            8462.982            8500.375            138.9854
 536.92             8472.26             8502.269            8463.29             8502.269           -30.00879
 536.82             8410.44             8504.265            8463.598            8504.265           -93.82422
 536.72             8415.68             8506.375            8463.905            8506.375           -90.69531
 536.62             8522.9              8508.61             8464.213            8508.61             14.29004
 536.52             8419.8              8510.985            8464.521            8510.985           -91.18555
 536.42             8467.23             8513.521            8464.828            8513.521           -46.29102
 536.32             8504.35             8516.239            8465.136            8516.239           -11.88965
 536.22             8526.67             8519.171            8465.442            8519.171            7.499023
 536.12             8340.67             8522.356            8465.75             8522.356           -181.6865
 536.02             8301.52             8525.85             8466.058            8525.85            -224.3301
 535.92             8375.13             8529.725            8466.365            8529.725           -154.5947
 535.82             8212.6              8534.076            8466.673            8534.076           -321.4766
 535.72             8577                8539.038            8466.98             8539.038            37.96191
 535.62             8774.48             8544.778            8467.288            8544.778            229.7021
 535.52             8772.82             8551.527            8467.595            8551.527            221.293
 535.42             8636.49             8559.594            8467.902            8559.594            76.89648
 535.32             8317.49             8569.354            8468.21             8569.354           -251.8643
 535.22             8431.78             8581.313            8468.518            8581.313           -149.5332
 535.12             8623.53             8596.075            8468.825            8596.075            27.45508
 535.02             8824.32             8614.407            8469.133            8614.407            209.9131
 534.92             8464.93             8637.245            8469.44             8637.245           -172.3154
 534.82             8852.06             8665.65             8469.747            8665.65             186.4092
 534.72             9017.89             8700.924            8470.055            8700.924            316.9658
 534.62             8875.32             8744.451            8470.362            8744.451            130.8691
 534.52             8572.15             8797.822            8470.67             8797.822           -225.6719
 534.42             8955.1              8862.758            8470.978            8862.758            92.3418
 534.32             9106.09             8940.901            8471.285            8940.901            165.1885
 534.22             9356.28             9034.042            8471.593            9034.042            322.2383
 534.12             9195.33             9143.626            8471.899            9143.626            51.7041
 534.02             9444.44             9271.024            8472.207            9271.024            173.416
 533.92             9516.35             9417.274            8472.515            9417.274            99.0752
 533.82             9769.73             9582.635            8472.822            9582.635            187.0957
 533.72             9985.06             9767.104            8473.13             9767.104            217.9551
 533.62             9803.61             9969.5              8473.438            9969.5             -165.8896
 533.52             10478.2             10188.11            8473.745            10188.11            290.0928
 533.42             10758.3             10420.33            8474.052            10420.33            337.9746
 533.32             10471.9             10662.15            8474.359            10662.15           -190.248
 533.22             10658.5             10909.18            8474.667            10909.18           -250.6758
 533.12             10896.1             11155.47            8474.975            11155.47           -259.375
 533.02             11152.1             11394.71            8475.282            11394.71           -242.6074
 532.92             11330.3             11619.79            8475.59             11619.79           -289.4932
 532.82             11886.4             11822.74            8475.897            11822.74            63.66016
 532.72             11724.5             11995.91            8476.204            11995.91           -271.4102
 532.62             11988.6             12131.57            8476.512            12131.57           -142.9688
 532.52             12199.7             12223.32            8476.819            12223.32           -23.62305
 532.42             12354.5             12266.44            8477.127            12266.44            88.05566
 532.32             12061.3             12258.56            8477.435            12258.56           -197.2568
 532.22             12406.7             12200.1             8477.742            12200.1             206.6006
 532.12             12518.2             12094.3             8478.05             12094.3             423.8994
 532.02             12105.3             11946.52            8478.357            11946.52            158.7773
 531.92             11946.1             11763.56            8478.664            11763.56            182.5439
 531.82             11520.6             11553.33            8478.972            11553.33           -32.73047
 531.72             11297.8             11323.47            8479.279            11323.47           -25.66699
 531.62             11237.3             11081.84            8479.587            11081.84            155.4639
 531.52             10356.6             10835.3             8479.895            10835.3            -478.7012
 531.42             10431.5             10589.94            8480.202            10589.94           -158.4365
 531.32             10386.2             10351.38            8480.51             10351.38            34.81934
 531.22             10130.3             10123.73            8480.816            10123.73            6.571289
 531.12             9912.16             9910.669            8481.124            9910.669            1.491211
 531.02             9430.72             9714.502            8481.432            9714.502           -283.7822
 530.92             9497.34             9536.661            8481.739            9536.661           -39.32129
 530.82             9398.34             9378.067            8482.047            9378.067            20.27246
 530.72             9309.58             9238.512            8482.354            9238.512            71.06836
 530.62             9079.49             9117.55             8482.662            9117.55            -38.05957
 530.52             9152.24             9014.014            8482.969            9014.014            138.2266
 530.42             8885.55             8926.447            8483.276            8926.447           -40.89746
 530.32             8825.8              8853.343            8483.584            8853.343           -27.54297
 530.22             8823.96             8792.897            8483.892            8792.897            31.0625
 530.12             8681.69             8743.469            8484.199            8743.469           -61.77832
 530.02             8302.75             8703.368            8484.507            8703.368           -400.6182
 529.92             8623.68             8671.048            8484.814            8671.048           -47.36816
 529.82             8375.38             8645.171            8485.121            8645.171           -269.791
 529.72             8502.91             8624.496            8485.429            8624.496           -121.5859
 529.62             8946.2              8608.014            8485.736            8608.014            338.1865
 529.52             8452.85             8594.841            8486.044            8594.841           -141.9912
 529.42             8642.56             8584.26             8486.352            8584.26             58.2998
 529.32             8220.11             8575.706            8486.659            8575.706           -355.5957
 529.22             8167.48             8568.712            8486.967            8568.712           -401.2319
 529.12             8459.45             8562.928            8487.273            8562.928           -103.4775
 529.02             8451.57             8558.074            8487.581            8558.074           -106.5039
 528.92             8338.05             8553.939            8487.889            8553.939           -215.8896
 528.82             8133.98             8550.369            8488.196            8550.369           -416.3892
 528.72             8419.03             8547.239            8488.504            8547.239           -128.209
 528.62             8365.79             8544.467            8488.812            8544.467           -178.6768
 528.52             8389.8              8541.983            8489.119            8541.983           -152.1836
 528.42             8476.35             8539.738            8489.427            8539.738           -63.38867
 528.32             8324.86             8537.696            8489.733            8537.696           -212.8359
 528.22             8334.12             8535.828            8490.041            8535.828           -201.708
 528.12             8213.24             8534.115            8490.349            8534.115           -320.875
 528.02             8437.45             8532.537            8490.656            8532.537           -95.08691
 527.92             8225.31             8531.079            8490.964            8531.079           -305.7695
 527.82             8300.73             8529.732            8491.271            8529.732           -229.002
 527.72             8150.83             8528.485            8491.579            8528.485           -377.6553
 527.62             8366.85             8527.33             8491.886            8527.33            -160.4805
 527.52             8270.92             8526.26             8492.193            8526.26            -255.3398
 527.42             8386.05             8525.267            8492.501            8525.267           -139.2168
 527.32             8423.9              8524.347            8492.809            8524.347           -100.4463
 527.22             8621.5              8523.493            8493.116            8523.493            98.00684
 527.12             8378.87             8522.702            8493.424            8522.702           -143.832
 527.02             8469.99             8521.97             8493.731            8521.97            -51.97949
 526.92             8332.22             8521.289            8494.038            8521.289           -189.0693
 526.82             8630.54             8520.66             8494.346            8520.66             109.8799
 526.72             8362.9              8520.077            8494.653            8520.077           -157.1768
 526.62             8531.48             8519.539            8494.961            8519.539            11.94141
 526.52             8301.67             8519.042            8495.269            8519.042           -217.3721
 526.42             8308.09             8518.583            8495.576            8518.583           -210.4932
 526.32             8306.23             8518.161            8495.884            8518.161           -211.9307
 526.22             7948.15             8517.771            8496.19             8517.771           -569.6206
 526.12             8162.36             8517.414            8496.498            8517.414           -355.0542
 526.02             8316.34             8517.088            8496.806            8517.088           -200.748
 525.92             8069.26             8516.788            8497.113            8516.788           -447.5283
 525.82             8569.44             8516.517            8497.421            8516.517            52.92383
 525.72             8464.92             8516.27             8497.729            8516.27            -51.34961
 525.62             8437.51             8516.046            8498.036            8516.046           -78.53613
 525.52             8538.86             8515.844            8498.343            8515.844            23.0166
 525.42             8186.2              8515.664            8498.65             8515.664           -329.4639
 525.32             8499.14             8515.504            8498.958            8515.504           -16.36426
 525.22             8202.64             8515.362            8499.266            8515.362           -312.7227
 525.12             8258.62             8515.239            8499.573            8515.239           -256.6191
 525.02             8586.52             8515.133            8499.881            8515.133            71.38672
 524.92             8652.33             8515.042            8500.188            8515.042            137.2881
 524.82             8388.63             8514.968            8500.496            8514.968           -126.3379
 524.72             8315.11             8514.906            8500.803            8514.906           -199.7959
 524.62             8417.79             8514.859            8501.11             8514.859           -97.06934
 524.52             8490.08             8514.826            8501.418            8514.826           -24.74609
 524.42             8275.45             8514.805            8501.726            8514.805           -239.3545
 524.32             8438.7              8514.795            8502.033            8514.795           -76.09473
 524.22             8039.08             8514.797            8502.341            8514.797           -475.7168
 524.12             8289.79             8514.811            8502.648            8514.811           -225.0205
 524.02             8243.09             8514.832            8502.955            8514.832           -271.7422
 523.92             8281.45             8514.865            8503.263            8514.865           -233.415
 523.82             8420.74             8514.907            8503.57             8514.907           -94.16699
 523.72             8573.88             8514.959            8503.878            8514.959            58.9209
 523.62             8365.01             8515.019            8504.186            8515.019           -150.0088
 523.52             8380.78             8515.087            8504.493            8515.087           -134.3066
 523.42             8205.08             8515.162            8504.801            8515.162           -310.082
 523.32             8479.33             8515.245            8505.107            8515.245           -35.91504
 523.22             8521.23             8515.335            8505.415            8515.335            5.895508
 523.12             8390.93             8515.433            8505.723            8515.433           -124.5029
 523.02             8506.03             8515.537            8506.03             8515.537           -9.506836