File: Synthesis of barbituric acid doped carbon nitride for efficient solar-driven photocatalytic degradation of aniline/data/CN-BA-XPS/XPS/1#-Valence.dat
B.E.(eV)           Raw Intensity       Peak Sum            Background          Peak 1              Peak 2              Peak 3              Peak 4              Peak 5              Peak 6              difference
 41.02              361.621             365.7693            361.621             361.6356            361.6601            361.6533            361.6805            361.7091            365.5357           -4.148254
 40.82              357.359             365.751             361.5122            361.527             361.5518            361.545             361.5726            361.6018            365.5141           -8.392029
 40.62              376.939             365.9203            361.588             361.6029            361.628             361.6212            361.6493            361.679             365.68              11.01868
 40.42              337.447             365.9865            361.5576            361.5727            361.5981            361.5912            361.6197            361.6501            365.7427           -28.53952
 40.22              386.21              366.0553            361.5264            361.5417            361.5674            361.5605            361.5895            361.6205            365.8079            20.15472
 40.02              360.22              366.1681            361.5359            361.5514            361.5774            361.5704            361.6               361.6316            365.9171           -5.94809
 39.82              385.042             366.1587            361.4197            361.4353            361.4617            361.4547            361.4847            361.517             365.9039            18.88327
 39.62              347.687             366.1623            361.3127            361.3285            361.3552            361.3482            361.3787            361.4117            365.9037           -18.47528
 39.42              379.828             366.2779            361.3139            361.3298            361.3568            361.3498            361.3809            361.4145            366.0154            13.55011
 39.22              359.656             366.2794            361.1969            361.213             361.2404            361.2333            361.2649            361.2993            366.0129           -6.623444
 39.02              355.134             366.3262            361.1208            361.1371            361.1648            361.1577            361.1899            361.2249            366.0556           -11.19217
 38.82              358.579             366.4256            361.0928            361.1093            361.1374            361.1303            361.1631            361.1989            366.1508           -7.846558
 38.62              358.143             366.563             361.0983            361.115             361.1434            361.1363            361.1696            361.2062            366.2839           -8.420013
 38.42              386.014             366.7507            361.149             361.1659            361.1947            361.1876            361.2215            361.2589            366.4672            19.26334
 38.22              332.045             366.8447            361.1008            361.1179            361.1471            361.14              361.1745            361.2126            366.5567           -34.79965
 38.02              334.866             367.24              361.3485            361.3658            361.3954            361.3882            361.4233            361.4624            366.9474           -32.37396
 37.82              331.781             367.5122            361.4674            361.4849            361.5149            361.5077            361.5435            361.5834            367.2149           -35.7312
 37.62              354.438             367.6706            361.4663            361.484             361.5144            361.5072            361.5437            361.5844            367.3685           -13.2326
 37.42              376.871             367.9515            361.5813            361.5992            361.63              361.6228            361.66              361.7017            367.6444            8.919464
 37.22              367.087             368.0329            361.49              361.5081            361.5393            361.532             361.5699            361.6126            367.7207           -.9458923
 37.02              383.037             368.1433            361.4203            361.4387            361.4703            361.4631            361.5017            361.5453            367.8259            14.89371
 36.82              358.115             368.2607            361.35              361.3686            361.4006            361.3934            361.4327            361.4774            367.9379           -10.14566
 36.62              371.609             368.6838            361.5772            361.596             361.6285            361.6212            361.6613            361.7071            368.3555            2.925232
 36.42              375.806             368.819             361.5076            361.5266            361.5596            361.5523            361.5932            361.6401            368.4851            6.987
 36.22              357.635             369.0941            361.5683            361.5876            361.621             361.6137            361.6555            361.7034            368.7544           -11.45911
 36.02              385.882             369.402             361.6515            361.671             361.7049            361.6976            361.7401            361.7893            369.0564            16.48001
 35.82              362.957             369.4655            361.479             361.4987            361.5331            361.5258            361.5692            361.6196            369.1138           -6.508545
 35.62              363.253             369.8038            361.5688            361.5888            361.6236            361.6164            361.6607            361.7123            369.4458           -6.550812
 35.42              326.727             370.2019            361.7047            361.725             361.7604            361.7531            361.7983            361.8513            369.8375           -43.47495
 35.22              333.826             370.6978            361.9231            361.9436            361.9795            361.9722            362.0184            362.0727            370.3267           -36.87177
 35.02              309.424             371.0097            361.9405            361.9613            361.9977            361.9904            362.0375            362.0933            370.6319           -61.58572
 34.82              389.284             371.7153            362.332             362.3531            362.39              362.3828            362.4309            362.4881            371.3305            17.56866
 34.62              338.199             371.898             362.1784            362.1998            362.2372            362.23              362.2792            362.3379            371.5059           -33.69897
 34.42              373.145             372.3241            362.2429            362.2646            362.3026            362.2954            362.3456            362.4059            371.9246            .8208618
 34.22              367.883             372.5891            362.1168            362.1388            362.1774            362.1702            362.2215            362.2834            372.182            -4.706116
 34.02              354.77              373.0775            362.1798            362.2021            362.2413            362.2341            362.2866            362.3501            372.6625           -18.30753
 33.82              322.973             373.6417            362.2786            362.3011            362.3409            362.3338            362.3875            362.4527            373.2186           -50.66867
 33.62              344.99              374.2951            362.4196            362.4425            362.4828            362.4758            362.5306            362.5977            373.8637           -29.30515
 33.42              380.284             374.8391            362.3957            362.4189            362.4599            362.4529            362.5089            362.5779            374.3991            5.444885
 33.22              382.389             375.4686            362.3919            362.4154            362.457             362.45              362.5074            362.5784            375.0197            6.920441
 33.02              350.548             376.0416            362.2544            362.2782            362.3205            362.3136            362.3723            362.4453            375.5836           -25.49362
 32.82              404.374             376.8329            362.2438            362.2679            362.3109            362.304             362.3641            362.4393            376.3654            27.54114
 32.62              369.284             377.5946            362.0959            362.1204            362.1641            362.1573            362.2188            362.2962            377.1174           -8.310577
 32.42              400.388             378.4874            361.9521            361.9769            362.0213            362.0145            362.0775            362.1573            378.0002            21.9006
 32.22              363.926             379.4615            361.7401            361.7653            361.8103            361.8037            361.8682            361.9504            378.9639           -15.53546
 32.02              388.015             380.6461            361.5634            361.589             361.6348            361.6282            361.6943            361.7791            380.1378            7.368866
 31.82              404.554             381.9978            361.349             361.3749            361.4215            361.415             361.4827            361.5701            381.4784            22.55621
 31.62              338.884             383.3755            360.9223            360.9486            360.9959            360.9896            361.059             361.1491            382.8446           -44.49152
 31.42              432.417             385.413             360.8792            360.9059            360.954             360.9477            361.0189            361.112             384.8703            47.00397
 31.22              368.023             387.2361            360.3031            360.3303            360.3792            360.373             360.446             360.5421            386.6812           -19.21313
 31.02              389                 389.6999            360.0023            360.0298            360.0796            360.0735            360.1484            360.2477            389.1322           -.6999207
 30.82              350.984             392.7958            359.9166            359.9446            359.9952            359.9893            360.0662            360.1687            392.215            -41.81183
 30.62              394.118             396.2239            359.6902            359.7186            359.7701            359.7643            359.8433            359.9493            395.6294           -2.105865
 30.42              409.472             399.7268            359.0055            359.0343            359.0867            359.0811            359.1622            359.2719            399.1181            9.745209
 30.22              393.657             403.8667            358.3607            358.39              358.4433            358.4378            358.5211            358.6346            403.2433           -10.20969
 30.02              426.611             408.7973            357.8425            357.8722            357.9265            357.9212            358.0068            358.1243            408.1588            17.81366
 29.82              486.351             414.1481            357.0106            357.0408            357.096             357.0909            357.1789            357.3007            413.4937            72.20291
 29.62              479.34              420.2046            356.08              356.1106            356.1668            356.162             356.2524            356.3786            419.5338            59.13544
 29.42              459.32              426.7218            354.7345            354.7657            354.8229            354.8183            354.9113            355.0422            426.034             32.59821
 29.22              491.869             434.308             353.5132            353.5448            353.6031            353.5988            353.6945            353.8303            433.6024            57.56097
 29.02              551.168             442.922             352.3085            352.3407            352.4001            352.3959            352.4945            352.6355            442.1979            108.2461
 28.82              477.999             452.1411            350.6364            350.6691            350.7296            350.7257            350.8272            350.9736            451.3978            25.85791
 28.62              503.677             462.7334            349.2109            349.2441            349.3058            349.3022            349.4068            349.5589            461.97              40.9436
 28.42              499.552             474.0873            347.3751            347.4089            347.4717            347.4684            347.5763            347.7345            473.303             25.46469
 28.22              554.25              486.7625            345.6555            345.6898            345.7539            345.751             345.8621            346.0268            485.9565            67.48746
 28.02              532.689             500.416             343.6895            343.7244            343.7897            343.7871            343.9018            344.0733            499.5872            32.27304
 27.82              565.418             515.3705            341.7962            341.8317            341.8983            341.8961            342.0144            342.1931            514.5179            50.04749
 27.62              624.022             531.5098            339.874             339.9102            339.9781            339.9762            340.0984            340.2848            530.6323            92.51221
 27.42              593.093             548.2384            337.3622            337.399             337.4683            337.4669            337.593             337.7875            547.3348            44.85461
 27.22              663.053             565.9733            334.7349            334.7723            334.8429            334.842             334.9724            335.1755            565.0424            97.07971
 27.02              645.478             584.5819            331.9401            331.9781            332.0503            332.0498            332.1846            332.3969            583.6226            60.89612
 26.82              602.465             604.0327            329.0507            329.0894            329.163             329.1631            329.3026            329.5246            603.0433           -1.567627
 26.62              687.411             623.8563            325.7283            325.7677            325.8428            325.8435            325.9878            326.2202            622.8356            63.55469
 26.42              720.672             644.0515            322.1274            322.1675            322.2442            322.2455            322.3949            322.6385            642.9978            76.62048
 26.22              705.746             664.8009            318.6126            318.6535            318.7318            318.7337            318.8886            319.1439            663.7124            40.94507
 26.02              686.082             685.2601            314.5473            314.589             314.669             314.6715            314.8321            315.1001            684.1351            .8218384
 25.82              711.248             705.9626            310.6963            310.7387            310.8205            310.8238            310.9903            311.2719            704.799             5.2854
 25.62              731.425             726.1373            306.5441            306.5873            306.6709            306.675             306.8478            307.1439            724.933             5.287659
 25.42              733.497             745.7322            302.3146            302.3586            302.444             302.4489            302.6284            302.9401            744.4849           -12.23517
 25.22              782.773             764.2164            297.7723            297.8172            297.9045            297.9104            298.0968            298.4254            762.9238            18.55658
 25.02              777.663             781.3872            293.0249            293.0707            293.16              293.1667            293.3607            293.7072            780.0465           -3.724182
 24.82              741.901             797.206             288.3541            288.4008            288.4921            288.4999            288.7017            289.0677            795.8144           -55.30499
 24.62              800.296             811.1251            283.5372            283.5847            283.6782            283.6871            283.8972            284.2843            809.6794           -10.8291
 24.42              741.02              822.923             278.6724            278.7209            278.8166            278.8267            279.0456            279.4554            821.4199           -81.90295
 24.22              754.938             832.3658            273.8322            273.8817            273.9796            273.9909            274.2191            274.6537            830.8016           -77.42786
 24.02              797.503             839.0942            268.9365            268.987             269.0873            269.0999            269.3382            269.7995            837.4648           -41.59125
 23.82              812.557             842.7494            263.8666            263.9182            264.0209            264.0349            264.2838            264.7743            841.0505           -30.19238
 23.62              782.817             842.9473            258.4266            258.4792            258.5845            258.6               258.8601            259.3824            841.174            -60.13025
 23.42              786.242             840.4354            253.4884            253.5421            253.65              253.6672            253.9393            254.4963            838.5825           -54.19342
 23.22              829.9               834.1234            248.0149            248.0698            248.1804            248.1993            248.4843            249.0792            832.1849           -4.223389
 23.02              783.637             824.5542            242.5273            242.5833            242.6968            242.7176            243.0163            243.6529            822.5238           -40.91718
 22.82              782.657             812.0441            237.2462            237.3035            237.4198            237.4427            237.756             238.4385            809.9146           -29.38708
 22.62              747.459             796.528             231.944             232.0025            232.1219            232.147             232.4761            233.2091            794.2916           -49.06903
 22.42              792.361             778.3693            226.7638            226.8236            226.9462            226.9736            227.3195            228.1084            776.017             13.99176
 22.22              762.853             757.392             221.2642            221.3254            221.4512            221.4811            221.8452            222.696             754.9141            5.46106
 22.02              751.865             734.3707            215.9224            215.9849            216.1142            216.1468            216.5304            217.45              731.7562            17.49432
 21.82              773.077             709.3812            210.4971            210.5611            210.694             210.7295            211.1341            212.1305            706.6177            63.69586
 21.62              716.271             682.9358            205.175             205.2405            205.377             205.4157            205.8431            206.9253            680.0093            33.33521
 21.42              788.251             655.3187            199.9152            199.9822            200.1226            200.1646            200.6166            201.7953            652.2133            132.9323
 21.22              778.407             626.4417            194.3112            194.3797            194.5242            194.5699            195.0486            196.3359            623.1392            151.9653
 21.02              728.195             597.0714            188.8245            188.8948            189.0434            189.0931            189.6007            191.0109            593.5511            131.1236
 20.82              682.665             567.8348            183.7943            183.8662            184.0193            184.0732            184.6123            186.1622            564.0729            114.8302
 20.62              617.739             539.084             179.3037            179.3774            179.5351            179.5936            180.1671            181.8766            535.0527            78.65503
 20.42              622.189             510.6848            174.9716            175.0472            175.2097            175.2732            175.8842            177.7772            506.3516            111.5043
 20.22              554.286             483.0423            170.9785            171.0559            171.2234            171.2924            171.9445            174.0502            478.3683            71.24371
 20.02              475.422             456.5463            167.5113            167.5907            167.7635            167.8383            168.5355            170.8914            451.4833            18.87567
 19.82              438.703             431.1528            164.3445            164.426             164.6042            164.6855            165.4324            168.089             425.6382            7.550171
 19.62              408.039             407.3056            161.7552            161.8388            162.0228            162.1111            162.9127            165.9439            401.2523            .733429
 19.42              386.054             384.9143            159.4933            159.5791            159.7692            159.865             160.7273            164.2491            378.191             1.139679
 19.22              333.173             363.9471            157.356             157.4442            157.6405            157.7447            158.6743            162.8806            356.3428           -30.77411
 19.02              338.403             344.9468            155.6777            155.7683            155.9713            156.0845            157.0891            162.3127            336.1095           -6.543823
 18.82              322.413             327.692             153.9537            154.0468            154.2568            154.3799            155.4683            162.2786            317.0301           -5.278961
 18.62              275.55              312.5435            152.1394            152.2351            152.4525            152.5864            153.7687            163.114             299.0839           -36.99347
 18.42              252.833             300.7071            150.8693            150.9677            151.1929            151.3387            152.6267            166.0186            282.9091           -47.8741
 18.22              270.604             292.4342            149.6356            149.7369            149.9702            150.129             151.5366            171.2541            267.9854           -21.83017
 18.02              315.958             288.4578            148.2542            148.3584            148.6003            148.7736            150.3171            179.5784            254.101             27.50018
 17.82              306.663             289.8216            146.804             146.9113            147.1623            147.3514            149.0506            192.0714            241.2945            16.84137
 17.62              310.036             297.138             145.0936            145.2042            145.4648            145.6714            147.5509            209.3905            229.3242            12.89804
 17.42              328.035             310.8168            143.1796            143.2936            143.5643            143.7904            145.8821            231.9963            218.1881            17.21823
 17.22              367.803             330.74              141.3577            141.4752            141.7567            142.0043            144.3528            259.8218            208.1177            37.06302
 17.02              378.663             355.0806            139.2401            139.3613            139.6542            139.9257            142.5974            291.0854            198.6569            23.5824
 16.82              400.472             381.3315            136.9031            137.0282            137.3332            137.6313            140.7318            323.3108            189.8116            19.14047
 16.62              396.699             406.0374            134.549             134.6782            134.996             135.3239            139.0273            353.0437            181.7131           -9.338379
 16.42              425.278             424.4965            131.8628            131.9963            132.3278            132.689             137.2864            375.5348            173.9762            .7815552
 16.22              417.767             432.7132            129.1184            129.2564            129.6024            130.0011            135.9725            386.6664            166.8066           -14.94617
 16.02              491.253             427.885             126.1544            126.2972            126.6586            127.0994            135.2124            383.4121            159.9774            63.36801
 15.82              407.527             410.4432            122.9907            123.1384            123.5165            124.0048            135.4349            365.8557            153.4466           -2.916229
 15.62              373.457             384.4736            120.2799            120.4329            120.8286            121.3709            137.8248            337.607             147.809            -11.01663
 15.42              378.816             354.5983            117.6537            117.8122            118.2268            118.8305            142.6393            302.7149            142.6429            24.21774
 15.22              331.305             326.0053            115.2927            115.4571            115.892             116.566             150.6981            265.7757            138.08              5.299713
 15.02              333.189             302.844             113.2538            113.4243            113.881             114.636             162.5765            230.4622            134.1329            30.34497
 14.82              287.347             287.7308            111.4607            111.6377            112.1178            112.9674            178.4203            199.2054            130.6855           -.3837891
 14.62              275.89              281.4696            109.6607            109.8446            110.35              111.3118            197.715             173.1019            127.4497           -5.57959
 14.42              303.397             283.4732            107.8608            108.0521            108.5847            109.6836            219.5705            152.4851            124.4014            19.9238
 14.22              314.27              291.6637            106.0332            106.2322            106.7943            108.0671            242.3513            136.8998            121.4851            22.60629
 14.02              326.182             302.6373            103.9278            104.135             104.729             106.2335            263.5158            125.2357            118.4272            23.54474
 13.82              312.853             312.7883            101.7333            101.9493            102.5779            104.4079            280.4444            116.6797            115.3957            6.466675E-02
 13.62              342.449             318.397             99.5274             99.75275            100.419             102.7278            290.3112            110.3727            112.4506            24.05203
 13.42              305.658             316.5811            97.30344            97.53873            98.24604            101.2813            290.9156            105.5463            109.5702           -10.92307
 13.22              273.786             306.5759            95.28659            95.53249            96.28471            100.4357            281.9203            101.8687            106.967            -32.78992
 13.02              275.518             289.5009            93.42696            93.68421            94.48561            100.3412            264.6284            98.91587            104.5804           -13.98291
 12.82              245.27              268.0116            91.74136            92.01077            92.86621            101.2764            241.6754            96.4716             102.418            -22.74156
 12.62              245.254             245.2148            90.22864            90.51109            91.42606            103.5536            215.9983            94.3978             100.4712            3.915405E-02
 12.42              275.702             223.7594            88.66589            88.96234            89.94312            107.2843            189.9935            92.39469            98.51079            51.94264
 12.22              242.733             205.9713            87.11569            87.42722            88.48091            112.8324            165.7324            90.4827             96.59415            36.76172
 12.02              232.013             193.4515            85.71461            86.04238            87.17719            120.5254            144.651             88.7751             94.85352            38.56148
 11.82              230.12              186.7976            84.47255            84.81786            86.04322            130.3667            127.369             87.26828            93.2952             43.32242
 11.62              193.589             185.4717            83.11486            83.47916            84.80598            141.7958            113.6443            85.67917            91.64163            8.117294
 11.42              223.645             188.886             82.05328            82.43819            83.87915            154.6033            103.516             84.41368            90.30207            34.75902
 11.22              187.083             194.9205            80.73347            81.14076            82.71071            167.2631            95.83997            82.91312            88.72015           -7.837479
 11.02              202.101             202.0426            79.55987            79.99156            81.70796            178.8912            90.37408            81.57855            87.29865            5.834961E-02
 10.82              179.452             207.9379            78.30799            78.76634            80.64985            187.7655            86.30178            80.1827             85.81165           -28.48587
 10.62              207.111             210.728             77.04173            77.52927            79.60451            192.4875            83.20633            78.78717            84.32186           -3.617035
 10.42              185.31              208.955             75.66824            76.18784            78.48436            191.9516            80.63968            77.2972             82.73544           -23.64499
 10.22              182.717             202.6902            74.64926            75.20419            77.75773            186.4676            78.82076            76.17292            81.51327           -19.97319
 10.02              197.975             192.0498            73.4694             74.06336            76.91753            176.3003            77.07887            74.89754            80.13922            5.925201
 9.82               208.083             178.5451            72.35138            72.98862            76.19719            163.0454            75.54271            73.69265            78.83538            29.53789
 9.62               205.334             163.4507            71.09004            71.77547            75.40553            148.0192            73.95261            72.35207            77.39603            41.88329
 9.42               177.775             148.5809            70.14212            70.88137            75.01871            133.0479            72.73444            71.33167            76.27742            29.19405
 9.22               164.582             134.7383            69.22159            70.02122            74.78054            118.922             71.58472            70.34469            75.19307            29.84367
 9.02               142.301             122.7036            68.33501            69.20271            74.75172            106.3782            70.49982            69.39705            74.14915            19.59737
 8.82               140.644             113.19              67.70077            68.64555            75.26591            96.02046            69.69173            68.70654            73.36368            27.45396
 8.62               122.433             106.3404            67.1149             68.14743            76.38387            87.73023            68.95219            68.06876            72.63238            16.09263
 8.42               117.359             102.6862            66.65421            67.78722            78.77846            81.44497            68.35484            67.56003            72.03173            14.67278
 8.22               106.054             103.0964            66.23007            67.47886            83.59505            76.80006            67.80859            67.09138            71.47285            2.957573
 8.02               117.959             109.5379            65.88493            67.26801            93.13105            73.50681            67.35388            66.70493            70.99791            8.421082
 7.82               154.63              124.871             65.2905             66.83054            110.5691            70.91257            66.66078            66.07206            70.27839            29.75904
 7.62               170.316             153.2365            64.44162            66.1666             140.3264            68.73253            65.72274            65.18737            69.30889            17.07954
 7.42               254.158             198.1923            63.15041            65.09531            186.1747            66.55944            64.35072            63.86274            67.90133            55.96574
 7.22               269.36              260.4819            61.23581            63.44489            249.0089            64.05309            62.36264            61.91692            65.87447            8.878113
 7.02               381.176             335.3055            58.48099            61.01107            324.1259            60.88851            59.54083            59.13287            63.01125            45.87048
 6.82               480.844             411.1284            55.04715            57.97284            400.0437            57.15749            56.04575            55.67164            59.47273            69.71564
 6.62               449.828             469.9044            51.05484            54.47852            458.7318            52.93807            51.99732            51.65363            55.37929           -20.07642
 6.42               469.992             492.5449            47.21985            51.2975             481.074             48.92087            48.11077            47.79448            51.44654           -22.55292
 6.22               530.128             468.464             43.02069            48.04049            456.3675            44.56982            43.86415            43.57259            47.15287            61.664
 6.02               428.007             406.5397            38.89642            45.5109             393.1353            40.31545            39.69609            39.42691            42.93719            21.46725
 5.82               370.3               327.5183            35.29437            45.10876            311.1766            36.59996            36.05354            35.80467            39.24669            42.78165
 5.62               303.221             252.4384            32.367              49.12276            229.3975            33.57253            33.08866            32.85823            36.23372            50.78264
 5.42               253.573             197.534             29.95               61.23182            160.1917            31.06657            30.63684            30.42321            33.73382            56.039
 5.22               231.981             172.9924            27.80774            86.28922            108.6597            28.8448             28.46221            28.2639             31.51129            58.98863
 5.02               233.253             181.8403            25.68257            127.8366            74.03059            26.64823            26.30689            26.12259            29.30834            51.41267
 4.82               250.288             218.4194            23.55984            183.9633            52.54329            24.46115            24.15605            23.98456            27.11024            31.86859
 4.62               291.032             266.611             21.16632            243.0162            39.46055            22.00942            21.73625            21.57651            24.64364            24.42105
 4.42               303.633             301.9098            18.35815            284.1532            30.97621            19.14845            18.9035             18.75455            21.76461            1.723236
 4.22               313.285             301.0364            15.51968            286.5034            25.06721            16.26194            16.042              15.90297            18.8574             12.24857
 4.02               271.613             259.8903            12.84787            247.3082            20.589              13.54629            13.34858            13.21868            16.11889            11.72272
 3.82               231.645             196.7238            10.50708            185.478             17.04898            11.16541            10.98749            10.86602            13.71336            34.92117
 3.62               182.381             133.2486            8.432999            123.0189            14.0888             9.054554            8.894315            8.780622            11.57642            49.13239
 3.42               161.124             83.22353            6.750671            73.81813            11.70577            7.338427            7.194005            7.087507            9.833056            77.90046
 3.22               116.955             50.39507            5.418701            41.68177            9.79937             5.97532             5.845079            5.745241            8.441792            66.55994
 3.02               88.2953             31.95036            4.561638            23.82924            8.462318            5.089512            4.972012            4.878347            7.527116            56.34495
 2.82               44.3377             22.38893            3.803425            14.7808             7.298222            4.304709            4.198676            4.110739            6.712907            21.94877
 2.62               37.1108             17.7406             3.422752            10.58117            6.571217            3.899393            3.803699            3.721083            6.277797            19.3702
 2.42               21.6246             15.2885             3.21566             8.524837            6.066315            3.669419            3.583063            3.505395            6.017768            6.336103
 2.22               7.61905             13.74639            3.072164            7.33443             5.664954            3.50464             3.426729            3.353668            5.822783           -6.127337
 2.02               6.71068             12.68458            3.029044            6.5873              5.397141            3.441693            3.371433            3.302663            5.729569           -5.973898
 1.82               6.33453             11.85807            3.013594            6.044101            5.184757            3.40774             3.34442             3.279654            5.665371           -5.523542
 1.62               2.13285             11.1774             3.005713            5.619935            5.003347            3.382567            3.325551            3.264523            5.61004            -9.044547
 1.42               2.13285             10.61732            3.015538            5.293316            4.859506            3.376209            3.324925            3.267389            5.573668           -8.484471
 1.22               2.42897             10.14167            3.029443            5.031159            4.736707            3.374945            3.328882            3.274612            5.542586           -7.712704
 1.02               5.57423             9.724272            3.037367            4.809844            4.622497            3.368633            3.327329            3.276116            5.506691           -4.150042
 .82                1.33653             9.357712            3.043985            4.624112            4.519561            3.361873            3.324911            3.276562            5.470617           -8.021182
 .62                .37215              9.049048            3.065606            4.482827            4.442549            3.370907            3.337912            3.292247            5.450637           -8.676898
 .42                0                   8.774656            3.085805            4.363892            4.373637            3.37925             3.34988             3.306735            5.430288           -8.774656
 .22                3.57343             8.539219            3.114954            4.273299            4.322015            3.397216            3.371165            3.330384            5.419908           -4.965789
 .02                3.20528             8.314987            3.129841            4.184417            4.263468            3.401546            3.378534            3.339976            5.396252           -5.109707
-.18                0                   8.120415            3.152595            4.11667             4.219264            3.414322            3.394095            3.357626            5.381413           -8.120415
-.38                .86435              7.952734            3.183441            4.068124            4.188891            3.435728            3.418055            3.383551            5.375589           -7.088385
-.58                2.94518             7.784692            3.197589            4.012254            4.146927            3.440936            3.425607            3.392955            5.35396            -4.839512
-.78                0                   7.620998            3.201805            3.954411            4.099583            3.436677            3.423501            3.392592            5.323261           -7.620998
-.98                0                   7.492091            3.22824             3.925589            4.078535            3.455071            3.443872            3.414608            5.315619           -7.492091
-1.18               .94438              7.379449            3.259826            3.907764            4.066296            3.47902             3.469639            3.441925            5.313935           -6.435069
-1.38               0                   7.272097            3.286815            3.890396            4.052753            3.498751            3.491042            3.464791            5.30844            -7.272097
-1.58               2.0048              7.175169            3.315395            3.879007            4.043774            3.520426            3.514255            3.489385            5.305296           -5.170369
-1.78               1.70868             7.067524            3.32533             3.852804            4.018838            3.523787            3.519032            3.495467            5.284244           -5.358844
-1.98               1.19248             6.969701            3.337939            3.832633            3.999017            3.530133            3.52668             3.50435             5.26658            -5.777221
-2.18               0                   6.890569            3.362777            3.827646            3.993642            3.548998            3.546745            3.525583            5.261837           -6.890569
-2.38               2.72909             6.822135            3.392441            3.830097            3.995113            3.572964            3.571815            3.551757            5.262593           -4.093045
-2.58               0                   6.74622             3.409273            3.822031            3.985597            3.584355            3.584224            3.565211            5.251169           -6.74622
-2.78               .05602              6.691719            3.44263             3.832551            3.994293            3.612512            3.613317            3.595295            5.256901           -6.635699
-2.98               2.80512             6.635509            3.469795            3.838719            3.998343            3.634704            3.636373            3.619289            5.257054           -3.830389
-3.18               2.93717             6.572237            3.485775            3.835351            3.992629            3.645926            3.64839             3.632197            5.246619           -3.635067
-3.38               1.05642             6.518772            3.507761            3.839468            3.994227            3.663358            3.666553            3.651204            5.242769           -5.462352
-3.58               2.38495             6.469729            3.530656            3.845828            3.997938            3.681889            3.685758            3.671209            5.240389           -4.08478
-3.78               .53221              6.411518            3.541128            3.840969            3.990337            3.688178            3.692667            3.678879            5.226131           -5.879308
-3.98               3.57343             6.378154            3.573425            3.859025            4.005588            3.716462            3.721522            3.708455            5.234229           -2.804724