File: Synthesis of barbituric acid doped carbon nitride for efficient solar-driven photocatalytic degradation of aniline/data/CN-BA-XPS/XPS/6#-C1s.dat
B.E.(eV)           Raw Intensity       Peak Sum            Background          Peak 1              Peak 2              Peak 3              difference
 321.02             3066.53             3070.046            3066.53             3066.968            3069.345            3066.794           -3.516113
 320.87             3205.76             3070.155            3066.606            3067.048            3069.447            3066.873            135.6055
 320.72             3130.27             3071.09             3067.509            3067.954            3070.376            3067.778            59.17969
 320.57             2985.47             3071.538            3067.923            3068.372            3070.817            3068.195           -86.06787
 320.42             3069.5              3071.481            3067.832            3068.284            3070.752            3068.107           -1.980713
 320.27             2962.1              3071.674            3067.99             3068.447            3070.939            3068.269           -109.5737
 320.12             3174.19             3071.655            3067.936            3068.397            3070.913            3068.218            102.5352
 319.97             3141.25             3072.198            3068.444            3068.908            3071.448            3068.728            69.05249
 319.82             3068.39             3072.427            3068.638            3069.106            3071.671            3068.926           -4.037354
 319.67             3263.42             3072.464            3068.638            3069.111            3071.7              3068.929            190.9556
 319.52             3107.86             3073.358            3069.495            3069.972            3072.587            3069.79             34.50171
 319.37             3078.53             3073.896            3069.995            3070.476            3073.117            3070.293            4.634033
 319.22             3214.83             3074.293            3070.355            3070.84             3073.507            3070.656            140.5366
 319.07             3260.35             3075.683            3071.706            3072.195            3074.889            3072.01             184.667
 318.92             3171.99             3076.586            3072.569            3073.063            3075.783            3072.877            95.4043
 318.77             3331.8              3077.258            3073.201            3073.699            3076.447            3073.513            254.5425
 318.62             3296.42             3078.672            3074.576            3075.078            3077.854            3074.891            217.7476
 318.47             3247.62             3079.791            3075.653            3076.16             3078.964            3075.972            167.8293
 318.32             3142.7              3080.935            3076.756            3077.267            3080.1              3077.079            61.76489
 318.17             3232.87             3082.155            3077.933            3078.45             3081.312            3078.261            150.7148
 318.02             3263.28             3083.644            3079.379            3079.9              3082.791            3079.71             179.6365
 317.87             3211.23             3085.337            3081.029            3081.555            3084.476            3081.364            125.8931
 317.72             3257.37             3087.279            3082.926            3083.457            3086.409            3083.266            170.0913
 317.57             3334.92             3089.554            3085.156            3085.692            3088.675            3085.5              245.366
 317.42             3252.81             3092.23             3087.787            3088.327            3091.341            3088.135            160.5803
 317.27             3221.14             3094.204            3089.714            3090.26             3093.306            3090.066            126.9363
 317.12             3430.26             3096.074            3091.537            3092.088            3095.166            3091.894            334.1863
 316.97             3205.06             3098.112            3093.527            3094.083            3097.195            3093.889            106.948
 316.82             3149.51             3100.597            3095.964            3096.525            3099.67             3096.33             48.91333
 316.67             3146.26             3101.985            3097.303            3097.87             3101.048            3097.674            44.27466
 316.52             3299.03             3103.611            3098.878            3099.45             3102.664            3099.254            195.4192
 316.37             3382.01             3105.945            3101.162            3101.739            3104.987            3101.542            276.0649
 316.22             3214.39             3108.386            3103.551            3104.134            3107.418            3103.936            106.0039
 316.07             3390.83             3110.74             3105.852            3106.44             3109.76             3106.242            280.0903
 315.92             3246.86             3113.593            3108.652            3109.246            3112.603            3109.047            133.2668
 315.77             3411.22             3116.365            3111.369            3111.969            3115.364            3111.769            294.8555
 315.62             3277.37             3119.368            3114.317            3114.923            3118.356            3114.723            158.002
 315.47             3197.21             3122.589            3117.481            3118.094            3121.565            3117.893            74.62085
 315.32             3318.34             3125.47             3120.305            3120.924            3124.435            3120.723            192.8696
 315.17             3417.22             3129.474            3124.251            3124.875            3128.427            3124.674            287.7461
 315.02             3170.11             3133.21             3127.927            3128.558            3132.15             3128.356            36.90039
 314.87             3231.89             3136.248            3130.905            3131.542            3135.176            3131.34             95.64233
 314.72             3332.28             3139.727            3134.323            3134.966            3138.642            3134.764            192.5535
 314.57             3437.69             3143.206            3137.74             3138.39             3142.109            3138.187            294.4841
 314.42             3293.2              3147.755            3142.226            3142.883            3146.645            3142.679            145.4448
 314.27             3167.35             3151.617            3146.023            3146.686            3150.493            3146.483            15.7334
 314.12             3170.94             3155.232            3149.573            3150.243            3154.095            3150.039            15.70776
 313.97             3320.93             3159.384            3153.657            3154.335            3158.233            3154.131            161.5461
 313.82             3251.05             3164.222            3158.428            3159.112            3163.057            3158.908            86.82788
 313.67             3380.36             3168.905            3163.042            3163.733            3167.726            3163.529            211.4548
 313.52             3318.85             3173.789            3167.855            3168.554            3172.596            3168.35             145.0608
 313.37             3233.83             3178.143            3172.136            3172.843            3176.934            3172.638            55.6875
 313.22             3220.57             3183.149            3177.069            3177.783            3181.925            3177.579            37.42139
 313.07             3278.87             3188.109            3181.955            3182.677            3186.87             3182.472            90.76147
 312.92             3246.75             3192.915            3186.685            3187.415            3191.66             3187.21             53.83521
 312.77             3170.55             3197.864            3191.557            3192.294            3196.593            3192.09            -27.31348
 312.62             3249.71             3202.469            3196.084            3196.83             3201.183            3196.626            47.24048
 312.47             3166.67             3206.954            3200.488            3201.242            3205.65             3201.038           -40.28394
 312.32             3121.48             3212.3              3205.752            3206.514            3210.979            3206.311           -90.81958
 312.17             3131.98             3217.291            3210.66             3211.43             3215.953            3211.228           -85.31079
 312.02             3077.25             3222.749            3216.033            3216.812            3221.393            3216.609           -145.4985
 311.87             3096.68             3227.609            3220.807            3221.595            3226.235            3221.393           -130.9292
 311.72             3138.74             3233.285            3226.395            3227.191            3231.893            3226.99            -94.54517
 311.57             3031.11             3238.453            3231.473            3232.278            3237.042            3232.078           -207.343
 311.42             3084.43             3243.163            3236.091            3236.906            3241.733            3236.706           -158.7334
 311.27             3098.97             3248.309            3241.143            3241.967            3246.859            3241.769           -149.3394
 311.12             2938.42             3253.148            3245.886            3246.72             3251.678            3246.522           -314.728
 310.97             3130.56             3257.667            3250.308            3251.151            3256.177            3250.955           -127.1069
 310.82             2854.11             3263.313            3255.854            3256.708            3261.802            3256.512           -409.2029
 310.67             3048.14             3268.368            3260.808            3261.671            3266.835            3261.477           -220.228
 310.52             2883.6              3273.248            3265.584            3266.457            3271.693            3266.265           -389.6477
 310.37             2925.9              3277.654            3269.884            3270.768            3276.077            3270.577           -351.7537
 310.22             3068.61             3282.684            3274.806            3275.701            3281.084            3275.511           -214.0737
 310.07             2809.43             3287.629            3279.641            3280.546            3286.005            3280.359           -478.1987
 309.92             3116.16             3292.759            3284.658            3285.574            3291.112            3285.389           -176.5991
 309.77             2884.48             3298.011            3289.795            3290.722            3296.339            3290.539           -413.5308
 309.62             2836.88             3303.05             3294.717            3295.656            3301.354            3295.475           -466.1704
 309.47             2814.91             3307.234            3298.781            3299.731            3305.512            3299.552           -492.324
 309.32             2799.51             3311.665            3303.088            3304.051            3309.916            3303.875           -512.1548
 309.17             2684.53             3315.982            3307.28             3308.254            3314.207            3308.082           -631.4521
 309.02             2719.89             3320.244            3311.414            3312.401            3318.441            3312.231           -600.3542
 308.87             2868.07             3324.326            3315.365            3316.364            3322.495            3316.198           -456.2563
 308.72             2528.63             3328.664            3319.568            3320.58             3326.804            3320.417           -800.0339
 308.57             2642.54             3332.061            3322.828            3323.853            3330.171            3323.693           -689.5208
 308.42             2786.82             3336.048            3326.675            3327.712            3334.128            3327.557           -549.2278
 308.27             2866.22             3340.171            3330.654            3331.705            3338.22             3331.554           -473.9509
 308.12             2746.61             3343.93             3334.267            3335.332            3341.948            3335.185           -597.3203
 307.97             2636.03             3347.449            3337.635            3338.714            3345.434            3338.572           -711.4194
 307.82             2661.73             3350.521            3340.553            3341.646            3348.472            3341.509           -688.791
 307.67             2503.73             3353.652            3343.526            3344.634            3351.568            3344.502           -849.9221
 307.52             2746.47             3356.11             3345.823            3346.945            3353.991            3346.819           -609.6404
 307.37             2485.87             3359.152            3348.699            3349.836            3356.997            3349.717           -873.2817
 307.22             2530.82             3361.226            3350.603            3351.756            3359.033            3351.642           -830.4055
 307.07             2568.04             3362.851            3352.054            3353.223            3360.62             3353.117           -794.811
 306.92             2683.12             3364.559            3353.584            3354.769            3362.288            3354.67            -681.4387
 306.77             2378.16             3366.209            3355.052            3356.253            3363.898            3356.162           -988.0496
 306.62             2425.77             3367.175            3355.83             3357.048            3364.822            3356.965           -941.4048
 306.47             2441.53             3368.243            3356.706            3357.941            3365.847            3357.866           -926.7131
 306.32             2478.01             3369.634            3357.899            3359.152            3367.194            3359.087           -891.624
 306.17             2458.72             3370.271            3358.334            3359.605            3367.786            3359.55            -911.5515
 306.02             2357.09             3370.436            3358.291            3359.58             3367.904            3359.535           -1013.346
 305.87             2424.8              3370.722            3358.364            3359.671            3368.142            3359.637           -945.9221
 305.72             2382.64             3370.659            3358.082            3359.408            3368.028            3359.385           -988.0188
 305.57             2377.7              3370.664            3357.861            3359.207            3367.982            3359.197           -992.9636
 305.42             2343.56             3369.538            3356.504            3357.87             3366.803            3357.873           -1025.978
 305.27             2324.87             3368.913            3355.641            3357.027            3366.123            3357.044           -1044.042
 305.12             2193.1              3367.607            3354.092            3355.499            3364.762            3355.53            -1174.507
 304.97             2190.83             3365.23             3351.463            3352.892            3362.327            3352.939           -1174.4
 304.82             2179.93             3362.67             3348.645            3350.095            3359.707            3350.159           -1182.74
 304.67             2298.16             3359.649            3345.358            3346.83             3356.624            3346.911           -1061.49
 304.52             2449.32             3356.675            3342.109            3343.604            3353.585            3343.704           -907.3547
 304.37             2315.36             3354.289            3339.441            3340.959            3351.132            3341.079           -1038.928
 304.22             2185.37             3351.026            3335.888            3337.43             3347.801            3337.571           -1165.656
 304.07             2258.75             3346.766            3331.329            3332.896            3343.47             3333.059           -1088.016
 303.92             2203.58             3342.463            3326.718            3328.31             3339.094            3328.496           -1138.883
 303.77             2210.91             3337.575            3321.512            3323.129            3334.129            3323.341           -1126.665
 303.62             2141.87             3332.211            3315.82             3317.464            3328.686            3317.702           -1190.341
 303.47             2149.67             3326.746            3310.017            3311.687            3323.138            3311.954           -1177.076
 303.32             2159.97             3320.559            3303.481            3305.179            3316.867            3305.476           -1160.589
 303.17             1999.76             3313.931            3296.493            3298.219            3310.15             3298.548           -1314.171
 303.02             2121.78             3306.477            3288.667            3290.422            3302.604            3290.785           -1184.697
 302.87             1985.94             3298.827            3280.633            3282.417            3294.859            3282.817           -1312.887
 302.72             2187.23             3290.539            3271.946            3273.761            3286.47             3274.199           -1103.309
 302.57             2141.62             3282.262            3263.259            3265.105            3278.09             3265.584           -1140.642
 302.42             2045.84             3273.605            3254.176            3256.055            3269.325            3256.578           -1227.765
 302.27             2311.34             3264.198            3244.329            3246.24             3259.805            3246.811           -952.8582
 302.12             2212.73             3255.066            3234.741            3236.686            3250.556            3237.306           -1042.336
 301.97             2151.26             3245.02             3224.223            3226.202            3240.386            3226.876           -1093.76
 301.82             2078.32             3234.445            3213.158            3215.174            3229.683            3215.904           -1156.125
 301.67             2129.99             3223.091            3201.297            3203.349            3218.195            3204.14            -1093.101
 301.52             2183.52             3211.885            3189.565            3191.655            3206.85             3192.511           -1028.365
 301.37             2200.48             3199.922            3177.055            3179.183            3194.739            3180.11            -999.4419
 301.22             2239.02             3187.41             3163.975            3166.143            3182.073            3167.145           -948.3896
 301.07             2239.19             3174.27             3150.246            3152.454            3168.771            3153.536           -935.0803
 300.92             2155.39             3161.473            3136.835            3139.085            3155.804            3140.253           -1006.083
 300.77             2312.77             3148.145            3122.868            3125.161            3142.297            3126.422           -835.3748
 300.62             2146.4              3134.283            3108.342            3110.679            3128.247            3112.04            -987.8833
 300.47             2303.59             3119.659            3093.025            3095.408            3113.425            3096.876           -816.0691
 300.32             2219.91             3105.142            3077.785            3080.216            3098.698            3081.798           -885.2317
 300.17             2471.57             3090.153            3062.042            3064.521            3083.488            3066.228           -618.5825
 300.02             2333.77             3075.303            3046.406            3048.935            3068.405            3050.776           -741.5334
 299.87             2475.65             3060.141            3030.421            3033.001            3052.994            3034.987           -584.4907
 299.72             2303.72             3044.22             3013.64             3016.273            3036.811            3018.416           -740.4998
 299.57             2384.98             3027.198            2995.718            2998.406            3019.51             3000.717           -642.2175
 299.42             2467.43             3009.909            2977.485            2980.23             3001.924            2982.725           -542.4788
 299.27             2317.29             2992.385            2958.972            2961.775            2984.085            2964.47            -675.0952
 299.12             2159.75             2973.617            2939.165            2942.028            2964.979            2944.94            -813.8669
 298.97             2306.05             2954.152            2918.608            2921.532            2945.154            2924.681           -648.1016
 298.82             2171.51             2934.234            2897.541            2900.53             2924.85             2903.936           -762.7236
 298.67             2190.31             2913.657            2875.754            2878.809            2903.859            2882.497           -723.3469
 298.52             2067.35             2892.272            2853.093            2856.216            2882.03             2860.212           -824.9224
 298.37             2070.46             2869.441            2828.914            2832.108            2858.72             2836.441           -798.9814
 298.22             1996.82             2845.885            2803.931            2807.198            2834.646            2811.903           -849.0648
 298.07             1955.88             2821.713            2778.249            2781.592            2809.915            2786.705           -865.8329
 297.92             1947.92             2796.654            2751.587            2755.008            2784.248            2760.571           -848.7335
 297.77             1941.98             2770.929            2724.157            2727.659            2757.862            2733.722           -828.9492
 297.62             1887.05             2744.047            2695.457            2699.043            2730.256            2705.662           -856.9971
 297.47             2153.84             2716.444            2665.909            2669.582            2701.855            2676.824           -562.6035
 297.32             1992.15             2688.805            2636.18             2639.944            2673.333            2647.889           -696.6549
 297.17             1910.34             2660.268            2605.384            2609.241            2643.804            2617.991           -749.9281
 297.02             1918.23             2631.119            2573.77             2577.724            2613.522            2587.412           -712.8887
 296.87             1982.08             2601.394            2541.322            2545.377            2582.479            2556.183           -619.3141
 296.72             2026.62             2571.159            2508.028            2512.188            2550.663            2524.364           -544.5387
 296.57             2038.7              2540.716            2474.071            2478.34             2518.267            2492.252           -502.0159
 296.42             1888.44             2509.508            2438.719            2443.101            2484.562            2459.283           -621.0676
 296.27             1973.1              2478.198            2402.377            2406.877            2449.961            2426.115           -505.0975
 296.12             2013.69             2447.588            2365.486            2370.108            2414.911            2393.541           -433.8979
 295.97             2082.19             2418.273            2328.136            2332.886            2379.511            2362.149           -336.0835
 295.82             2013.56             2390.476            2289.884            2294.767            2343.326            2332.151           -376.9158
 295.67             1979.34             2364.718            2250.403            2255.424            2306.04             2304.06            -385.3781
 295.52             2027.86             2342.271            2209.932            2215.098            2267.902            2279.135           -314.4108
 295.37             2170.44             2324.465            2168.634            2173.951            2229.085            2258.697           -154.0251
 295.22             2322.78             2313.336            2127.285            2132.76             2190.38             2244.767            9.444092
 295.07             2229.12             2309.358            2085.141            2090.78             2151.056            2237.803           -80.23804
 294.92             2206.68             2313.571            2042.216            2048.028            2111.145            2238.831           -106.8911
 294.77             2355.04             2326.611            1998.5              2004.492            2070.653            2248.467            28.42871
 294.62             2541.81             2349.047            1954.541            1960.721            2030.148            2267.259            192.7632
 294.47             2497.49             2380.004            1910.198            1916.577            1989.513            2294.31             117.4861
 294.32             2549.38             2417.42             1865.094            1871.68             1948.395            2327.534            131.9595
 294.17             2570.11             2458.98             1819.61             1826.414            1907.204            2364.583            111.1304
 294.02             2569.75             2500.229            1773                1780.032            1865.226            2400.971            69.52051
 293.87             2574.58             2536.689            1725.467            1732.74             1822.7              2432.183            37.89063
 293.72             2642.19             2563.455            1677.45             1684.976            1780.107            2453.272            78.73511
 293.57             2731.33             2573.877            1627.929            1635.721            1736.474            2457.539            157.4534
 293.42             2499.9              2563.969            1578.045            1586.118            1692.997            2440.944           -64.06885
 293.27             2567.83             2529.18             1526.8              1535.169            1648.741            2398.871            38.6499
 293.12             2397.48             2469.022            1474.698            1483.38             1604.279            2330.761           -71.54224
 292.97             2250.08             2384.227            1420.551            1429.563            1558.506            2237.259           -134.1465
 292.82             2415.24             2279.26             1364.568            1373.929            1511.732            2122.736            135.9797
 292.67             2108.15             2160.258            1307.354            1317.085            1464.671            1993.21            -52.1084
 292.52             1959.16             2032.187            1248.091            1258.215            1416.643            1853.512           -73.02734
 292.37             1846.83             1900.389            1186.698            1197.238            1367.717            1708.83            -53.55945
 292.22             1653.9              1770.233            1123.92             1134.903            1318.828            1564.341           -116.3325
 292.07             1554.39             1644.719            1059.058            1070.512            1269.498            1422.824           -90.32849
 291.92             1666.42             1526.634            992.1827            1004.139            1220.065            1286.795            139.786
 291.77             1437.46             1418.301            923.8603            936.3525            1171.42             1158.249            19.15918
 291.62             1358.46             1319.879            853.3036            866.3682            1123.162            1036.956            38.58105
 291.47             1226.5              1231.883            780.7551            794.432             1076.02             922.9409           -5.382568
 291.32             1319.84             1154.679            706.7147            721.0479            1031.103            815.9582            165.1608
 291.17             1195.48             1088.086            631.2825            646.3199            989.3023            715.0286            107.394
 291.02             1266.52             1031.309            553.7786            569.5735            951.0519            618.2405            235.2113
 290.87             1411.08             985.5794            474.9625            491.573             918.8005            525.1307            425.5005
 290.72             1289.69             952.5565            394.6437            412.1343            895.3344            434.3752            337.1334
 290.57             1337.89             936.6006            312.4723            330.9145            885.9764            344.6544            401.2894
 290.42             1433.91             948.8314            229.0879            248.5608            902.6265            255.8199            485.0786
 290.27             1534.43             1010.986            144.7546            165.3468            967.6238            167.5249            523.4438
 290.12             1618.91             1163.068            58.98718            80.79694            1121.413            78.83192            455.842
 289.97             1914.51             1476.318           -27.34082           -4.203096            1435.551           -9.711079            438.1915
 289.82             2569.71             2061.956           -113.5645           -88.97475            2021.466           -97.66418            507.7542
 289.67             3262.22             3076.431           -197.7534           -171.5719            3035.745           -183.2488            185.7893
 289.52             4687.4              4707.751           -278.5674           -250.6356            4666.478           -265.2249           -20.35156
 289.37             6824.72             7141.198           -350.9971           -321.1357            7098.987           -338.648            -316.4775
 289.22             9781.94             10492.64           -411.5234           -379.5278            10449.16           -400.0417           -710.6973
 289.07             13895.4             14732.13           -454.6445           -420.2802            14687.06           -443.9317           -836.7344
 288.92             18550.9             19615.9            -471.6152           -434.6127            19568.87           -461.5917           -1064.998
 288.77             24350.7             24643.53           -459.916            -419.9631            24594.18           -450.5154           -292.832
 288.62             29511.6             29083.68           -412.9414           -369.6767            29031.58           -404.1066            427.916
 288.47             33266.1             32071.95           -334.666            -287.6658            32016.63           -326.3475            1194.156
 288.32             33572.4             32881.28           -232.9395           -181.7034            32822.2            -225.0935            691.1211
 288.17             31933.2             31301.56           -121.5176           -65.44534            31238.07           -114.1055            631.6406
 288.02             28710.7             27777.92           -12.19336            49.45518            27709.26           -5.180534            932.7754
 287.87             22988.1             23124.5             83.04297            151.2167            23049.68            89.68761           -136.3984
 287.72             17171.5             18164.22            157.3965            233.3988            18081.92            163.7009           -992.7227
 287.57             12616.8             13538.25            206.7754            292.5452            13446.49            212.7647           -921.4453
 287.42             8738.79             9652.023            238.6982            337.3527            9547.672            244.3953           -913.2334
 287.27             6082.79             6663.595            255.3564            372.1823            6541.344            260.7818           -580.8047
 287.12             4846.12             4546.552            261.7769            405.8894            4397.268            266.9494            299.5679
 286.97             3855.98             3161.679            263.3569            450.2949            2969.805            268.2937            694.3005
 286.82             3387.29             2331.741            262.4028            517.7136            2071.713            267.1195            1055.549
 286.67             2855.49             1895.298            259.0366            622.599             1527.225            263.5475            960.1921
 286.52             2335.09             1735.551            254.415             784.6705            1200.977            258.7331            599.5393
 286.37             2388.85             1780.334            248.1326            1024.45             999.8796            252.2699            608.5157
 286.22             2532.57             1994.504            242.238             1363.616            869.1581            246.2056            538.0659
 286.07             2469.16             2359.385            237.5977            1815.291            777.8829            241.4057            109.7754
 285.92             2932.98             2855.417            233.5212            2376.591            708.6898            237.179             77.56274
 285.77             3214.15             3453.161            231.9446            3026.508            655.0817            235.4608           -239.0115
 285.62             3793.09             4100.114            232.6848            3716.802            612.6143            236.0675           -307.0237
 285.47             4395.65             4723.636            237.6021            4377.162            580.8187            240.8586           -327.9858
 285.32             4835.17             5230.808            246.3096            4916.07             557.9095            249.4469           -395.6377
 285.17             5213.37             5526.473            258.7944            5239.319            542.9236            261.819            -313.1025
 285.02             5643.31             5543.271            274.8286            5280.258            534.9242            277.7462            100.0391
 284.87             5671.46             5273.63             293.1367            5031.855            532.0951            295.953             397.8301
 284.72             5389.7              4774.648            313.0186            4551.658            533.2886            315.7386            615.0522
 284.57             4735.26             4136.74             333.1509            3930.441            536.8207            335.7796            598.52
 284.42             3777.01             3449.646            350.4653            3258.244            539.3262            353.0072            327.3638
 284.27             3161.29             2788.722            364.6965            2610.669            540.2905            367.1557            372.5681
 284.12             2332.61             2205.522            375.3463            2039.473            539.015             377.7268            127.0881
 283.97             1865.05             1727.571            383.2491            1572.356            536.1584            385.5546            137.4792
 283.82             1101.08             1360.813            389.2409            1215.409            532.4106            391.4749           -259.733
 283.67             920.168             1093.789            392.3467            957.2977            526.6725            394.5125           -173.6213
 283.52             678.351             909.6001            394.6498            781.2294            520.92              396.7503           -231.2491
 283.37             523.099             787.317             396.3299            666.3635            515.2453            398.3681           -264.218
 283.22             528.541             707.5109            397.1838            593.3509            509.3652            399.1624           -178.9698
 283.07             390.666             655.9352            398.1007            548.0128            504.1014            400.0223           -265.2692
 282.92             408.043             621.3871            398.6256            519.2054            498.9403            400.4926           -213.3441
 282.77             430.472             597.3074            399.2016            500.4218            494.2726            401.0163           -166.8354
 282.62             377.851             579.2898            399.6529            487.2982            489.8799            401.4174           -201.4388
 282.47             430.112             564.9548            400.033             477.4958            485.7756            401.7494           -134.8428
 282.32             304.232             553.103             400.482             469.8496            482.0651            402.1523           -248.871
 282.17             415.666             542.7468            400.7466            463.403             478.4645            402.3726           -127.0808
 282.02             320.618             533.8346            401.1919            458.1319            475.3112            402.7752           -213.2166
 281.87             412.755             525.6511            401.3515            453.3439            472.1163            402.8939           -112.8961
 281.72             352.351             518.4476            401.6476            449.3124            469.2798            403.1506           -166.0966
 281.57             370.048             511.804             401.7841            445.6364            466.4866            403.2492           -141.756
 281.42             309.174             505.8998            402.0378            442.5127            463.9964            403.4664           -196.7258
 281.27             327.061             500.3357            402.0895            439.5578            461.4739            403.4829           -173.2747
 281.12             315.176             495.319             402.2103            436.9919            459.1779            403.5699           -180.143
 280.97             344.998             490.5376            402.145             434.5158            456.8398            403.4719           -145.5396
 280.82             431.303             486.3398            402.2893            432.4892            454.8445            403.5847           -55.0368
 280.67             340.476             482.7277            402.6861            430.9244            453.2244            403.9511           -142.2517
 280.52             395.258             479.1821            402.8519            429.3117            451.4866            404.0876           -83.92413
 280.37             321.329             475.7796            402.8923            427.7355            449.729             404.0997           -154.4506
 280.22             362.305             472.4884            402.8026            426.1719            447.9391            403.9827           -110.1834
 280.07             375.89              469.6671            402.9648            424.9865            446.4918            404.1184           -93.77704
 279.92             352.341             467.0411            403.1246            423.9113            445.1264            404.2526           -114.7001
 279.77             385.534             464.5276            403.2174            422.8693            443.7725            404.3207           -78.99362
 279.62             422.149             462.4453            403.577             422.1841            442.7589            404.6563           -40.29636
 279.47             294.598             460.5192            403.9428            421.5859            441.8199            404.999            -165.9212
 279.32             387.295             458.1721            403.7503            420.502             440.3867            404.7841           -70.87714
 279.17             387.815             456.2657            403.8724            419.7982            439.3279            404.8844           -68.45071
 279.02             372.789             454.5167            404.0361            419.1952            438.3666            405.0271           -81.72766
 278.87             346.879             452.9551            404.2798            418.7262            437.5382            405.2504           -106.0761
 278.72             407.183             451.3445            404.3758            418.1582            436.6113            405.3266           -44.16153
 278.57             330.002             449.6504            404.2965            417.4596            435.5556            405.2281           -119.6484
 278.42             380.932             448.0992            404.2754            416.8598            434.6017            405.1884           -67.16721
 278.27             368.687             446.6514            404.2791            416.322             433.7136            405.1741           -77.96442
 278.12             364.036             445.4728            404.4784            416.0138            433.0599            405.3559           -81.4368
 277.97             415.996             443.9807            404.296             415.3553            432.061             405.1564           -27.98474
 277.82             310.654             442.9056            404.4667            415.0787            431.4496            405.3106           -132.2516
 277.67             322.499             441.4989            404.2464            414.4376            430.4799            405.0743           -118.9999
 277.52             309.094             440.2582            404.1366            413.9314            429.6512            404.9489           -131.1642
 277.37             305.532             439.0363            403.9932            413.4142            428.8181            404.7903           -133.5042
 277.22             346.859             437.8018            403.7883            412.8565            427.9512            404.5707           -90.94275
 277.07             268.187             436.5368            403.5071            412.2419            427.034             404.2751           -168.3498
 276.92             324.83              435.2018            403.1127            411.5321            426.0284            403.8668           -110.3719
 276.77             329.892             434.034             402.845             410.9657            425.1729            403.5855           -104.142
 276.62             341.397             432.9684            402.6411            410.4786            424.4035            403.3684           -91.57135
 276.47             342.317             431.7758            402.2742            409.8432            423.4924            402.9886           -89.45877
 276.32             365.436             430.7534            402.0435            409.3574            422.7376            402.7454           -65.31741
 276.17             319.838             429.8652            401.9148            408.9863            422.1039            402.6045           -110.0272
 276.02             401.701             428.9223            401.7012            408.5421            421.4035            402.379            -27.22128