File: Synthesis of barbituric acid doped carbon nitride for efficient solar-driven photocatalytic degradation of aniline/data/CN-BA-XPS/XPS/6#-N1s.dat
B.E.(eV)           Raw Intensity       Peak Sum            Background          Peak 1              Peak 2              Peak 3              Peak 4              difference
 413.02             7258.27             7286.565            7258.27             7277.755            7264.183            7260.974            7258.464           -28.29541
 412.92             7078.64             7287.701            7258.987            7278.748            7264.992            7261.737            7259.186           -209.0605
 412.82             7197.9              7289.205            7260.064            7280.107            7266.162            7262.861            7260.268           -91.30469
 412.72             6807.35             7290.627            7261.051            7281.381            7267.244            7263.896            7261.259           -483.2769
 412.62             7417.4              7291.924            7261.902            7282.526            7268.192            7264.796            7262.115            125.4761
 412.52             7085                7291.892            7261.413            7282.337            7267.804            7264.358            7261.632           -206.8916
 412.42             6950.96             7292.968            7262.023            7283.254            7268.516            7265.02             7262.248           -342.0083
 412.32             7101.65             7294.234            7262.811            7284.355            7269.408            7265.861            7263.041           -192.5845
 412.22             7187.25             7295.47             7263.557            7285.423            7270.262            7266.663            7263.793           -108.2202
 412.12             7153.38             7296.12             7263.707            7285.9              7270.522            7266.869            7263.95            -142.7402
 412.02             6969.11             7297.125            7264.199            7286.728            7271.127            7267.419            7264.448           -328.0151
 411.92             7080.88             7298.913            7265.462            7288.333            7272.505            7268.742            7265.718           -218.0332
 411.82             7155.74             7299.957            7265.969            7289.191            7273.13             7269.31             7266.231           -144.2168
 411.72             7136.43             7301.085            7266.546            7290.127            7273.829            7269.951            7266.816           -164.6553
 411.62             7000.17             7302.507            7267.402            7291.352            7274.811            7270.872            7267.68            -302.3374
 411.52             6921.9              7304.801            7269.118            7293.443            7276.654            7272.654            7269.404           -382.9009
 411.42             7021.29             7306.712            7270.437            7295.146            7278.104            7274.042            7270.73            -285.4224
 411.32             6798.13             7308.44             7271.555            7296.66             7279.357            7275.231            7271.858           -510.3101
 411.22             6951.57             7311.519            7274.011            7299.519            7281.951            7277.759            7274.322           -359.9492
 411.12             6608.88             7313.79             7275.642            7301.563            7283.723            7279.465            7275.963           -704.9097
 411.02             6715.11             7317.217            7278.412            7304.757            7286.64             7282.313            7278.743           -602.1069
 410.92             6768.36             7319.832            7280.354            7307.133            7288.73             7284.334            7280.695           -551.4717
 410.82             6637.56             7322.309            7282.139            7309.363            7290.67             7286.202            7282.491           -684.749
 410.72             6515.49             7325.974            7285.094            7312.774            7293.783            7289.241            7285.458           -810.4839
 410.62             6457.42             7329.922            7288.313            7316.46             7297.164            7292.547            7288.688           -872.5024
 410.52             6670.95             7334.118            7291.758            7320.386            7300.777            7296.083            7292.146           -663.1675
 410.42             6214.42             7338.327            7295.197            7324.316            7304.388            7299.616            7295.599           -1123.907
 410.32             6471.27             7343.299            7299.378            7329.002            7308.746            7303.892            7299.793           -872.0288
 410.22             6647.12             7347.538            7302.803            7332.945            7312.353            7307.417            7303.233           -700.418
 410.12             6673.12             7351.955            7306.383            7337.057            7316.12             7311.1              7306.829           -678.835
 410.02             6491.66             7355.597            7309.165            7340.384            7319.094            7313.987            7309.626           -863.937
 409.92             6409.55             7360.395            7313.076            7344.855            7323.204            7318.008            7313.554           -950.8447
 409.82             6354.7              7365.293            7317.063            7349.418            7327.396            7322.108            7317.559           -1010.593
 409.72             6446.92             7369.875            7320.706            7353.653            7331.25             7325.869            7321.222           -922.9556
 409.62             6510.3              7375.059            7324.922            7358.477            7335.684            7330.206            7325.458           -864.7588
 409.52             6488.52             7379.404            7328.271            7362.451            7339.257            7333.682            7328.829           -890.8843
 409.42             6308.28             7384.143            7331.983            7366.805            7343.201            7337.524            7332.563           -1075.863
 409.32             6396.21             7389.618            7336.399            7371.881            7347.855            7342.075            7337.004           -993.4077
 409.22             6304.98             7394.66             7340.349            7376.511            7352.052            7346.165            7340.979           -1089.68
 409.12             6293.66             7400.344            7344.907            7381.768            7356.864            7350.869            7345.565           -1106.684
 409.02             6206.71             7405.849            7349.249            7386.829            7361.468            7355.361            7349.936           -1199.139
 408.92             6303.9              7412.001            7354.201            7392.522            7366.692            7360.47             7354.919           -1108.101
 408.82             6158.13             7417.926            7358.886            7397.97             7371.658            7365.318            7359.637           -1259.796
 408.72             6375.9              7424.527            7364.205            7404.076            7377.268            7370.807            7364.993           -1048.627
 408.62             6459.31             7430.011            7368.364            7409.045            7381.727            7375.142            7369.19            -970.7012
 408.52             6252.22             7435.528            7372.511            7414.026            7386.184            7379.472            7373.378           -1183.308
 408.42             6311.46             7442.116            7377.682            7420.058            7391.676            7384.833            7378.593           -1130.656
 408.32             6194.93             7447.751            7381.849            7425.113            7396.177            7389.199            7382.809           -1252.821
 408.22             6468.32             7454.709            7387.287            7431.467            7401.96             7394.844            7388.298           -986.3892
 408.12             6524                7460.157            7391.16             7436.286            7406.191            7398.933            7392.228           -936.1572
 408.02             6867.4              7465.516            7394.885            7440.986            7410.287            7402.883            7396.014           -598.1157
 407.92             6778.03             7469.724            7397.399            7444.508            7413.186            7405.632            7398.594           -691.6938
 407.82             6919.17             7473.852            7399.769            7447.919            7415.955            7408.248            7401.036           -554.6821
 407.72             6846.64             7478.564            7402.654            7451.881            7419.254            7411.39             7404               -631.9238
 407.62             6678.52             7482.995            7405.186            7455.525            7422.217            7414.19             7406.619           -804.4751
 407.52             6692.47             7488.403            7408.619            7460.109            7426.098            7417.904            7410.147           -795.9331
 407.42             6758.01             7493.718            7411.878            7464.559            7429.823            7421.458            7413.513           -735.7085
 407.32             6777.47             7498.422            7414.44             7468.353            7432.87             7424.329            7416.19            -720.9517
 407.22             6977.51             7503.166            7416.95             7472.139            7435.884            7427.163            7418.83            -525.6558
 407.12             7011.79             7507.547            7419                7475.511            7438.459            7429.553            7421.024           -495.7568
 407.02             7038.92             7511.755            7420.772            7478.653            7440.779            7431.683            7422.958           -472.835
 406.92             6844.17             7516.124            7422.595            7481.895            7443.172            7433.88             7424.961           -671.9541
 406.82             6912.83             7521.313            7425.116            7485.89             7446.289            7436.797            7427.687           -608.4829
 406.72             6965.1              7526.277            7427.282            7489.583            7449.076            7439.379            7430.084           -561.1768
 406.62             7002.83             7530.797            7428.863            7492.751            7451.307            7441.399            7431.93            -527.9673
 406.52             6990.02             7535.839            7430.812            7496.348            7453.934            7443.812            7434.182           -545.8188
 406.42             7151.31             7540.697            7432.41             7499.658            7456.241            7445.898            7436.129           -389.3867
 406.32             6939.63             7545.505            7433.77             7502.798            7458.344            7447.776            7437.896           -605.875
 406.22             7300.61             7550.649            7435.261            7506.141            7460.613            7449.814            7439.863           -250.0391
 406.12             7053.41             7554.857            7435.583            7508.39             7461.75             7450.717            7440.748           -501.4468
 406.02             7148.31             7561.088            7437.666            7512.479            7464.689            7453.416            7443.502           -412.7783
 405.92             7093.81             7567.14             7439.268            7516.171            7467.188            7455.671            7445.913           -473.3296
 405.82             7364.47             7573.696            7441.016            7520.098            7469.879            7458.114            7448.652           -209.2256
 405.72             7380.18             7579.01             7441.077            7522.432            7470.931            7458.915            7449.962           -198.8296
 405.62             7477.51             7585.716            7441.909            7525.636            7472.807            7460.537            7452.464           -108.2065
 405.52             7552.3              7592.237            7441.526            7527.73             7473.523            7460.996            7454.566           -39.93701
 405.42             7521.81             7600.913            7441.271            7530.063            7474.425            7461.641            7458.597           -79.10254
 405.32             7685.98             7614.202            7441.339            7532.837            7475.715            7462.673            7466.995            71.77783
 405.22             7870.13             7635.412            7440.614            7534.943            7476.28             7462.981            7483.049            234.7183
 405.12             7960.17             7670.977            7438.375            7535.668            7475.404            7461.853            7513.175            289.1929
 405.02             7885.07             7731.142            7436.004            7536.404            7474.477            7460.677            7567.596            153.9277
 404.92             8172.57             7823.494            7434.37             7538.025            7474.371            7460.33             7653.876            349.0762
 404.82             8082.71             7944.078            7431.07             7538.143            7472.692            7458.42             7768.031            138.6323
 404.72             8102.68             8079.299            7428.271            7538.933            7471.615            7457.126            7896.438            23.38135
 404.62             7833.47             8197.346            7425.483            7539.917            7470.657            7455.97             8007.253           -363.8755
 404.52             8179.62             8258.556            7422.854            7541.255            7469.975            7455.113            8060.776           -78.93555
 404.42             8302.8              8236.859            7419.686            7542.261            7468.881            7453.875            8030.901            65.94043
 404.32             8487.04             8144.956            7415.994            7542.969            7467.403            7452.29             7930.276            342.084
 404.22             8082.76             8020.899            7411.71             7543.326            7465.485            7450.313            7796.907            61.86035
 404.12             8284.27             7901.809            7407.892            7544.406            7464.199            7449.025            7667.855            382.4604
 404.02             7730.95             7810.285            7405.382            7547.072            7464.403            7449.302            7565.655           -79.33447
 403.92             7539.26             7752.446            7403.876            7551.039            7465.809            7450.87             7496.358           -213.186
 403.82             7697.85             7723.652            7403.107            7556.066            7468.171            7453.507            7455.229           -25.80176
 403.72             7343.4              7713.959            7401.682            7560.785            7470.12             7455.867            7432.233           -370.5591
 403.62             7384.26             7717.516            7401.653            7567.276            7473.73             7460.06             7421.408           -333.2559
 403.52             7293.94             7728.289            7402.26             7574.81             7478.273            7465.395            7416.59            -434.3486
 403.42             6880.7              7743.527            7403.54             7583.457            7483.815            7471.992            7414.884           -862.8267
 403.32             6710.29             7762.581            7406.01             7593.774            7490.913            7480.474            7415.45            -1052.291
 403.22             6344.09             7784.631            7409.194            7605.328            7499.131            7490.498            7417.256           -1440.541
 403.12             6256.51             7810.245            7413.602            7618.674            7509.029            7502.758            7420.588           -1553.735
 403.02             6357.14             7839.149            7418.674            7633.307            7520.104            7516.97             7424.792           -1482.009
 402.92             6242.02             7870.73             7423.287            7648.155            7531.292            7532.457            7428.687           -1628.71
 402.82             6021.49             7907.16             7428.694            7664.547            7543.93             7551.272            7433.494           -1885.669
 402.72             6011.61             7949.712            7434.589            7682.245            7557.795            7574.557            7438.882           -1938.103
 402.62             6093.04             8000.681            7440.453            7700.814            7572.48             7604.431            7444.315           -1907.641
 402.52             6432.23             8064.472            7445.823            7719.883            7587.652            7645.09             7449.316           -1632.242
 402.42             6439.11             8148.55             7450.103            7738.959            7602.885            7703.739            7453.276           -1709.44
 402.32             6936.83             8265.987            7453.676            7758.553            7618.802            7793.09             7456.572           -1329.157
 402.22             7266.54             8433.986            7455.396            7777.65             7634.598            7929.879            7458.049           -1167.446
 402.12             8065.57             8677.13             7455.432            7796.576            7650.967            8138.012            7457.87            -611.5601
 402.02             8993.92             9022.51             7451.792            7813.52             7666.769            8443.556            7454.042           -28.58984
 401.92             9571.41             9499.325            7443.979            7828.18             7682.889            8874.134            7446.061            72.08496
 401.82             11158.7             10133.42            7433.448            7842.265            7703.076            9453.042            7435.379            1025.282
 401.72             11591.7             10931.6             7417.305            7853.148            7728.096            10183.17            7419.102            660.0967
 401.62             12451.6             11883.16            7397.661            7863.263            7765.79             11047.76            7399.336            568.4375
 401.52             14021.5             12946.69            7374.467            7872.939            7824.726            11996.39            7376.034            1074.814
 401.42             14587.2             14048.94            7346.035            7880.925            7915.542            12943.08            7347.503            538.2559
 401.32             15112.4             15095.89            7314.162            7889.582            8056.955            13776.3             7315.54             16.5127
 401.22             15699.2             15979.73            7279.923            7900.653            8271.608            14366.02            7281.219           -280.5322
 401.12             15954.6             16609.23            7242.653            7914.355            8584.598            14594.36            7243.875           -654.6289
 401.02             16277.3             16958.07            7203.999            7933.561            9025.663            14405.7             7205.152           -680.7744
 400.92             16792.2             17088.71            7164.588            7960.702            9622.289            13833.81            7165.678           -296.5137
 400.82             17231.2             17128.07            7122.036            7996.34             10393.69            12981.08            7123.068            103.1289
 400.72             17685.6             17222.98            7078.025            8046.97             11350.82            11980.26            7079.004            462.6211
 400.62             18607               17492.23            7030.995            8119.204            12483.65            10950.43            7031.924            1114.773
 400.52             18687.8             18010.66            6980.427            8226.278            13760.1             9984.255            6981.31             677.1406
 400.42             19209.2             18805.46            6929.161            8393.547            15124.72            9144.676            6930.002            403.7422
 400.32             20182.9             19852.91            6874.562            8654.263            16491.11            8455.857            6875.363            329.9902
 400.22             21219               21097.24            6815.507            9061.268            17749.02            7917.198            6816.271            121.7617
 400.12             21917.9             22472.23            6752.08             9691.854            18773.13            7510.685            6752.811           -554.334
 400.02             23637               23928.63            6684.945            10650.19            19437.85            7209.785            6685.644           -291.6328
 399.92             24861.1             25461.91            6609.785            12060.09            19639.17            6981.557            6610.454           -600.8125
 399.82             26601.3             27154.8             6529.197            14070.76            19338.5             6803.296            6529.837           -553.5039
 399.72             29398.4             29161.31            6438.508            16822.81            18564.1             6650.799            6439.122            237.0938
 399.62             31660               31679.68            6336.6              20433.77            17409.37            6509.156            6337.188           -19.67969
 399.52             36049.7             34880.86            6221.219            24958.74            15996.84            6367.158            6221.784            1168.836
 399.42             39388.3             38840.09            6088.221            30351.44            14449.31            6215.238            6088.765            548.2148
 399.32             44281.6             43499.9             5938.779            36447.28            12878.21            6051.446            5939.302            781.6992
 399.22             50698.2             48621.25            5765.666            42920.9             11364.35            5866.84             5766.169            2076.945
 399.12             54905.7             53796.1             5566.354            49304.21            9966.162            5657.952            5566.838            1109.598
 399.02             58302.6             58469.95            5347.357            55008.79            8724.639            5430.772            5347.825           -167.3516
 398.92             61336.6             61986.88            5114.596            59367.91            7656.809            5190.908            5115.047           -650.2813
 398.82             63264.7             63705.16            4867.291            61748.22            6753.709            4937.371            4867.727           -440.457
 398.72             61545.4             63192.41            4615.455            61737.41            6005.461            4680.032            4615.875           -1647.016
 398.62             59230.9             60392.73            4370.939            59306.33            5397.24             4430.631            4371.346           -1161.828
 398.52             55638.7             55636.66            4135.682            54813.81            4902.805            4191.015            4136.075            2.035156
 398.42             50369.8             49516.43            3916.99             48878.24            4503.362            3968.422            3917.37             853.375
 398.32             43373.9             42690.23            3723.381            42180.13            4185.195            3771.305            3723.749            683.6719
 398.22             37045.4             35761.78            3558.986            35340.55            3935.105            3603.746            3559.343            1283.617
 398.12             30497.4             29208.61            3421.225            28849.94            3737.654            3463.12             3421.57             1288.791
 398.02             24661               23368.63            3311.041            23055.26            3584.785            3350.336            3311.376            1292.369
 397.92             18884.9             18430.45            3224.92             18151.14            3466.972            3261.848            3225.245            454.4512
 397.82             14361.2             14449.39            3161.818            14196.84            3379.287            3196.585            3162.133           -88.18652
 397.72             11488.4             11378.06            3116.332            11147.37            3313.925            3149.121            3116.638            110.3447
 397.62             9237.51             9099.854            3082.936            8887.63             3263.889            3113.909            3083.233            137.6563
 397.52             7596.23             7467.672            3058.219            7271.43             3224.869            3087.523            3058.508            128.5581
 397.42             6128.53             6332.137            3040.486            6149.961            3194.616            3068.251            3040.767           -203.6069
 397.32             4961.34             5558.019            3028.406            5388.375            3171.433            3054.749            3028.678           -596.6787
 397.22             4712.88             5035.027            3020.193            4876.633            3153.295            3045.221            3020.459           -322.1475
 397.12             4232.83             4678.372            3013.419            4530.13             3137.595            3037.227            3013.677           -445.5415
 397.02             3922.28             4430.483            3008.831            4291.445            3124.944            3031.506            3009.083           -508.2034
 396.92             3780.82             4250.759            3004.798            4120.089            3113.603            3026.418            3005.043           -469.9387
 396.82             3675.84             4114.382            3001.484            3991.351            3103.64             3022.121            3001.723           -438.5417
 396.72             3474.69             4005.89             2998.631            3889.848            3094.722            3018.35             2998.864           -531.2
 396.62             3406.44             3916.671            2996.753            3807.039            3087.298            3015.613            2996.979           -510.231
 396.52             3231.99             3840.657            2995.189            3736.918            3080.65             3013.246            2995.41            -608.6667
 396.42             3195.36             3774.969            2994.298            3676.661            3075.087            3011.601            2994.513           -579.6091
 396.32             3160.73             3716.693            2993.238            3623.401            3069.725            3009.834            2993.448           -555.9634
 396.22             3225.26             3665.149            2992.668            3576.498            3065.183            3008.599            2992.874           -439.8889
 396.12             2924.15             3618.91             2992.135            3534.563            3060.977            3007.439            2992.335           -694.7603
 396.02             3071.63             3577.651            2992.052            3497.301            3057.492            3006.767            2992.248           -506.0208
 395.92             2931.64             3539.943            2991.576            3463.311            3053.858            3005.734            2991.767           -608.3027
 395.82             2974.95             3506.324            2991.757            3433.159            3051.102            3005.389            2991.943           -531.3738
 395.72             2992.26             3475.757            2991.958            3405.83             3048.567            3005.093            2992.14            -483.4968
 395.62             2921.04             3447.886            2992.175            3380.985            3046.232            3004.839            2992.353           -526.8459
 395.52             2962.46             3422.481            2992.479            3358.414            3044.152            3004.698            2992.653           -460.021
 395.42             2864.76             3399.265            2992.848            3337.855            3042.291            3004.644            2993.018           -534.5049
 395.32             3014.84             3377.827            2993.11             3318.912            3040.462            3004.505            2993.277           -362.9868
 395.22             2967.74             3357.992            2993.279            3301.423            3038.671            3004.294            2993.443           -390.252
 395.12             3077.86             3340.035            2993.804            3285.675            3037.353            3004.457            2993.964           -262.1753
 395.02             3071.96             3322.561            2993.438            3270.281            3035.254            3003.746            2993.595           -250.6011
 394.92             2824.51             3306.561            2993.302            3256.245            3033.486            3003.281            2993.456           -482.051
 394.82             2847.12             3292.001            2993.488            3243.54             3032.132            3003.154            2993.638           -444.8809
 394.72             2935.63             3278.675            2993.888            3231.969            3031.08             3003.256            2994.035           -343.0454
 394.62             2782.26             3266.141            2994.152            3221.095            3029.971            3003.235            2994.296           -483.8811
 394.52             2794.71             3255.109            2995.072            3211.636            3029.593            3003.883            2995.214           -460.3994
 394.42             2867.57             3244.735            2995.873            3202.754            3029.165            3004.424            2996.012           -377.1648
 394.32             2982.95             3234.685            2996.295            3194.12             3028.422            3004.597            2996.431           -251.7351
 394.22             2903.74             3224.87             2996.303            3185.652            3027.324            3004.367            2996.436           -321.1304
 394.12             2981.49             3215.992            2996.651            3178.054            3026.623            3004.487            2996.781           -234.5024
 394.02             2872.85             3207.912            2997.247            3171.191            3026.221            3004.864            2997.375           -335.0615
 393.92             2851.21             3200.26             2997.763            3164.7              3025.79             3005.171            2997.889           -349.05
 393.82             2901.34             3192.958            2998.164            3158.504            3025.288            3005.371            2998.288           -291.6184
 393.72             3020.39             3186.125            2998.601            3152.726            3024.865            3005.615            2998.722           -165.7354
 393.62             2772.68             3179.134            2998.479            3146.742            3023.923            3005.308            2998.598           -406.4539
 393.52             2823.73             3174.002            2999.845            3142.573            3024.507            3006.496            2999.962           -350.2725
 393.42             2762.92             3168.512            3000.505            3138.002            3024.42             3006.985            3000.62            -405.592
 393.32             2856.84             3163.88             3001.704            3134.25             3024.906            3008.019            3001.817           -307.04
 393.22             2921.7              3159.14             3002.495            3130.353            3025.015            3008.652            3002.606           -237.4397
 393.12             2757.24             3154.572            3003.18             3126.592            3025.047            3009.184            3003.288           -397.3315
 393.02             2928.56             3150.535            3004.135            3123.329            3025.378            3009.992            3004.242           -221.9753
 392.92             2774.13             3146.379            3004.726            3119.915            3025.37             3010.441            3004.831           -372.2493
 392.82             2653.81             3142.759            3005.626            3117.007            3025.697            3011.205            3005.73            -488.9492
 392.72             2710.07             3140.204            3007.378            3115.135            3026.898            3012.824            3007.479           -430.1338
 392.62             2898.18             3137.497            3008.778            3113.085            3027.771            3014.097            3008.877           -239.3174
 392.52             2934.02             3134.258            3009.457            3110.477            3027.943            3014.653            3009.555           -200.238
 392.42             2891.12             3131.33             3010.269            3108.155            3028.269            3015.347            3010.365           -240.2097
 392.32             2703.56             3128.641            3011.155            3106.05             3028.688            3016.119            3011.25            -425.0811
 392.22             2735.03             3126.716            3012.649            3104.687            3029.731            3017.502            3012.742           -391.6855
 392.12             2843.61             3124.337            3013.542            3102.85             3030.192            3018.288            3013.634           -280.7273
 392.02             2781.29             3122.081            3014.418            3101.116            3030.651            3019.061            3014.509           -340.7913
 391.92             2902.84             3120.137            3015.474            3099.674            3031.306            3020.016            3015.563           -217.2974
 391.82             2851.15             3117.864            3016.077            3097.886            3031.523            3020.522            3016.165           -266.7141
 391.72             2579.3              3115.642            3016.615            3096.132            3031.688            3020.967            3016.701           -536.3423
 391.62             2801.1              3114.629            3018.25             3095.57             3032.964            3022.511            3018.335           -313.5291
 391.52             2729.94             3113.109            3019.274            3094.486            3033.641            3023.446            3019.357           -383.1692
 391.42             3056.27             3111.716            3020.324            3093.515            3034.357            3024.411            3020.406           -55.44629
 391.32             2692.55             3109.469            3020.426            3091.675            3034.136            3024.43             3020.507           -416.9189
 391.22             2815.27             3108.503            3021.72             3091.102            3035.118            3025.643            3021.8             -293.2332
 391.12             2741.18             3107.213            3022.604            3090.193            3035.7              3026.449            3022.683           -366.033
 391.02             2922.05             3106.322            3023.806            3089.669            3036.611            3027.576            3023.884           -184.2717
 390.92             2956.75             3105.045            3024.545            3088.749            3037.068            3028.241            3024.622           -148.2947
 390.82             2783.35             3103.392            3024.836            3087.441            3037.086            3028.46             3024.911           -320.0415
 390.72             2861.09             3102.478            3025.795            3086.861            3037.782            3029.351            3025.869           -241.3875
 390.62             2837.22             3101.271            3026.396            3085.978            3038.127            3029.884            3026.469           -264.0508
 390.52             2785.95             3100.294            3027.163            3085.315            3038.647            3030.586            3027.235           -314.344
 390.42             2818.57             3099.567            3028.119            3084.892            3039.363            3031.478            3028.19            -280.9968
 390.32             2777.93             3099.327            3029.505            3084.948            3040.517            3032.802            3029.575           -321.3972
 390.22             2835.75             3098.614            3030.363            3084.521            3041.15             3033.6              3030.432           -262.8643
 390.12             2823.26             3098.079            3031.347            3084.264            3041.916            3034.525            3031.415           -274.8193
 390.02             2772.8              3097.691            3032.427            3084.145            3042.784            3035.548            3032.494           -324.8911
 389.92             2716.13             3097.462            3033.617            3084.178            3043.769            3036.684            3033.684           -381.332
 389.82             2766.76             3097.549            3035.078            3084.519            3045.031            3038.091            3035.144           -330.7888
 389.72             2795.44             3097.721            3036.581            3084.938            3046.34             3039.541            3036.646           -302.2815
 389.62             2918.39             3097.317            3037.465            3084.774            3047.036            3040.374            3037.529           -178.9275
 389.52             2721.68             3096.772            3038.168            3084.463            3047.556            3041.027            3038.231           -375.0925
 389.42             2816.44             3096.764            3039.368            3084.681            3048.579            3042.178            3039.43            -280.3237
 389.32             2666.08             3096.586            3040.363            3084.725            3049.401            3043.125            3040.424           -430.5063
 389.22             2841.51             3096.923            3041.836            3085.276            3050.707            3044.552            3041.896           -255.4131
 389.12             2667.06             3096.808            3042.823            3085.37             3051.531            3045.494            3042.883           -429.7478
 389.02             3043.99             3096.906            3043.99             3085.671            3052.539            3046.617            3044.049           -52.91577