File: Synthesis of barbituric acid doped carbon nitride for efficient solar-driven photocatalytic degradation of aniline/data/CN-BA-XPS/XPS/6#-O1s.dat
B.E.(eV)           Raw Intensity       Peak Sum            Background          Peak 1              difference
 546.02             8610.12             8615.083            8610.12             8615.083           -4.962891
 545.92             8678.14             8615.111            8610.076            8615.111            63.02832
 545.82             8671.74             8615.165            8610.056            8615.165            56.5752
 545.72             8524.71             8615.228            8610.043            8615.228           -90.51758
 545.62             8843.84             8615.341            8610.078            8615.341            228.499
 545.52             8644.61             8615.354            8610.012            8615.354            29.25684
 545.42             8665.7              8615.447            8610.024            8615.447            50.25293
 545.32             8826.66             8615.462            8609.956            8615.462            211.1982
 545.22             8431.58             8615.481            8609.891            8615.481           -183.9014
 545.12             8565.31             8615.595            8609.918            8615.595           -50.28516
 545.02             9031.41             8615.67             8609.904            8615.67             415.7402
 544.92             8630.62             8615.697            8609.841            8615.697            14.92285
 544.82             8916.92             8615.797            8609.847            8615.797            301.123
 544.72             8476.33             8615.803            8609.758            8615.803           -139.4727
 544.62             8659.83             8615.929            8609.786            8615.929            43.90137
 544.52             8772.51             8616.016            8609.772            8616.016            156.4941
 544.42             8623.64             8616.07             8609.726            8616.07             7.569336
 544.32             8718.63             8616.128            8609.678            8616.128            102.502
 544.22             8479.38             8616.171            8609.613            8616.171           -136.791
 544.12             8847.19             8616.328            8609.66             8616.328            230.8623
 544.02             8723.27             8616.365            8609.584            8616.365            106.9043
 543.92             8700.96             8616.427            8609.53             8616.427            84.5332
 543.82             8570.17             8616.53             8609.515            8616.53            -46.36035
 543.72             8324.54             8616.699            8609.562            8616.699           -292.1592
 543.62             8410.26             8616.928            8609.665            8616.928           -206.668
 543.52             8520.29             8617.062            8609.67             8617.062           -96.77148
 543.42             8560.88             8617.194            8609.671            8617.194           -56.31445
 543.32             8414.93             8617.321            8609.662            8617.321           -202.3916
 543.22             8517.58             8617.521            8609.723            8617.521           -99.94043
 543.12             8487.09             8617.653            8609.712            8617.653           -130.5635
 543.02             8713.22             8617.853            8609.765            8617.853            95.36719
 542.92             8355.82             8618.034            8609.795            8618.034           -262.2139
 542.82             8735.92             8618.251            8609.856            8618.251            117.6689
 542.72             8476.08             8618.423            8609.868            8618.423           -142.3428
 542.62             8546.85             8618.609            8609.891            8618.609           -71.75977
 542.52             8602.47             8618.785            8609.897            8618.785           -16.31543
 542.42             8501.24             8618.986            8609.925            8618.986           -117.7461
 542.32             8527.34             8619.141            8609.899            8619.141           -91.80078
 542.22             8657.29             8619.313            8609.887            8619.313            37.97754
 542.12             8503.72             8619.486            8609.871            8619.486           -115.7666
 542.02             8763.39             8619.761            8609.949            8619.761            143.6289
 541.92             8625.88             8619.93             8609.916            8619.93             5.950195
 541.82             8708.67             8620.131            8609.909            8620.131            88.53906
 541.72             8607.64             8620.282            8609.846            8620.282           -12.64258
 541.62             8655.01             8620.517            8609.859            8620.517            34.49316
 541.52             8882.52             8620.713            8609.827            8620.713            261.8066
 541.42             8558.15             8620.909            8609.787            8620.909           -62.75879
 541.32             8778.03             8621.155            8609.79             8621.155            156.875
 541.22             8788.71             8621.347            8609.729            8621.347            167.3633
 541.12             8469.19             8621.545            8609.667            8621.545           -152.3545
 541.02             8334.31             8621.9              8609.754            8621.9             -287.5908
 540.92             8789.68             8622.27             8609.845            8622.27             167.4102
 540.82             8435.6              8622.468            8609.756            8622.468           -186.8682
 540.72             8445                8622.818            8609.809            8622.818           -177.8184
 540.62             8667.11             8623.195            8609.877            8623.195            43.91504
 540.52             8428.42             8623.503            8609.865            8623.503           -195.083
 540.42             8809.04             8623.828            8609.86             8623.828            185.2119
 540.32             8500.96             8624.086            8609.775            8624.086           -123.126
 540.22             8929.86             8624.396            8609.729            8624.396            305.4648
 540.12             8736.22             8624.694            8609.659            8624.694            111.5254
 540.02             8487.03             8625.033            8609.615            8625.033           -138.0029
 539.92             8540.93             8625.466            8609.649            8625.466           -84.53613
 539.82             8957.39             8625.896            8609.667            8625.896            331.4941
 539.72             8631.27             8626.243            8609.585            8626.243            5.026367
 539.62             8807.06             8626.692            8609.588            8626.692            180.3672
 539.52             8688                8627.056            8609.486            8627.056            60.94434
 539.42             8733.11             8627.516            8609.463            8627.516            105.5947
 539.32             8743.07             8627.951            8609.396            8627.951            115.1191
 539.22             8431.32             8628.479            8609.398            8628.479           -197.1592
 539.12             8531.69             8629.071            8609.443            8629.071           -97.38086
 539.02             8738.4              8629.702            8609.504            8629.702            108.6982
 538.92             8519.04             8630.279            8609.485            8630.279           -111.2393
 538.82             8681.08             8630.88             8609.464            8630.88             50.2002
 538.72             8771.42             8631.513            8609.446            8631.513            139.9072
 538.62             8839.53             8632.093            8609.346            8632.093            207.4375
 538.52             8226.62             8632.742            8609.284            8632.742           -406.1221
 538.42             8716.92             8633.543            8609.34             8633.543            83.37695
 538.32             8569.06             8634.256            8609.272            8634.256           -65.19629
 538.22             8716.49             8635.064            8609.262            8635.064            81.42578
 538.12             9005.94             8635.858            8609.197            8635.858            370.082
 538.02             8768.97             8636.685            8609.122            8636.685            132.2852
 537.92             8475.67             8637.604            8609.094            8637.604           -161.9346
 537.82             8335.84             8638.612            8609.104            8638.612           -302.7725
 537.72             8575.44             8639.716            8609.158            8639.716           -64.27539
 537.62             8426.93             8640.822            8609.159            8640.822           -213.8926
 537.52             8581.1              8641.989            8609.16             8641.989           -60.88965
 537.42             8657.92             8643.24             8609.18             8643.24             14.67969
 537.32             8458.87             8644.522            8609.161            8644.522           -185.6523
 537.22             8741.72             8645.885            8609.146            8645.885            95.83496
 537.12             8260.32             8647.384            8609.188            8647.384           -387.0635
 537.02             8300.81             8649.063            8609.319            8649.063           -348.2539
 536.92             8609.92             8650.788            8609.397            8650.788           -40.86816
 536.82             8912.18             8652.482            8609.338            8652.482            259.6973
 536.72             8502.7              8654.288            8609.267            8654.288           -151.5879
 536.62             8810.59             8656.33             8609.296            8656.33             154.2598
 536.52             8610.17             8658.474            8609.271            8658.474           -48.30371
 536.42             8395.93             8660.848            8609.293            8660.848           -264.918
 536.32             8500.18             8663.435            8609.315            8663.435           -163.2549
 536.22             8557.17             8666.254            8609.312            8666.254           -109.084
 536.12             8534.44             8669.39             8609.313            8669.39            -134.9492
 536.02             8766.08             8672.915            8609.318            8672.915            93.16504
 535.92             8618.68             8676.883            8609.281            8676.883           -58.20313
 535.82             8842.85             8681.48             8609.27             8681.48             161.3691
 535.72             8772.36             8686.818            8609.225            8686.818            85.54199
 535.62             8656.62             8693.13             8609.181            8693.13            -36.50977
 535.52             8661.29             8700.754            8609.209            8700.754           -39.46387
 535.42             8807.44             8709.901            8609.184            8709.901            97.53906
 535.32             8619.26             8721.065            8609.197            8721.065           -101.8057
 535.22             8456.09             8734.724            8609.214            8734.724           -278.6338
 535.12             8837.65             8751.48             8609.251            8751.48             86.16992
 535.02             8804.38             8771.935            8609.186            8771.935            32.44531
 534.92             8875.32             8797.023            8609.107            8797.023            78.29688
 534.82             8914.96             8827.702            8609.055            8827.702            87.25781
 534.72             8931.21             8865.035            8608.991            8865.035            66.1748
 534.62             8762.31             8910.109            8608.895            8910.109           -147.7998
 534.52             9358.55             8964.233            8608.819            8964.233            394.3164
 534.42             8980.13             9028.611            8608.659            9028.611           -48.48145
 534.32             8962.53             9104.535            8608.521            9104.535           -142.0049
 534.22             9258.63             9193.238            8608.348            9193.238            65.3916
 534.12             9385.25             9295.692            8608.158            9295.692            89.55762
 534.02             9441.65             9412.741            8607.896            9412.741            28.90918
 533.92             9725                9545.05             8607.584            9545.05             179.9502
 533.82             9927.02             9692.61             8607.198            9692.61             234.4092
 533.72             10100               9855.343            8606.759            9855.343            244.6572
 533.62             9892.52             10032.29            8606.316            10032.29           -139.7666
 533.52             10353.6             10222.13            8605.869            10222.13            131.4697
 533.42             10408               10422.82            8605.271            10422.82           -14.81641
 533.32             10742.1             10631.55            8604.672            10631.55            110.5508
 533.22             10745.3             10845.15            8603.998            10845.15           -99.84863
 533.12             10641.3             11059.39            8603.29             11059.39           -418.0869
 533.02             11552.2             11269.8             8602.561            11269.8             282.3975
 532.92             11251.5             11471.22            8601.645            11471.22           -219.7168
 532.82             11454.6             11658.09            8600.805            11658.09           -203.4912
 532.72             11890.3             11824.74            8599.927            11824.74            65.55762
 532.62             12044.7             11965.06            8598.882            11965.06            79.63574
 532.52             12034.3             12073.9             8597.799            12073.9            -39.60254
 532.42             11919.6             12146.77            8596.728            12146.77           -227.167
 532.32             11908.1             12180.28            8595.66             12180.28           -272.1777
 532.22             12126.9             12172.84            8594.558            12172.84           -45.93652
 532.12             12309.2             12124.79            8593.457            12124.79            184.4131
 532.02             12199               12038.21            8592.278            12038.21            160.7949
 531.92             12023.4             11916.84            8591.131            11916.84            106.5566
 531.82             12073.7             11765.72            8590.009            11765.72            307.9785
 531.72             11764.3             11590.26            8588.957            11590.26            174.0381
 531.62             11976.4             11396.47            8587.957            11396.47            579.9307
 531.52             11259.2             11189.91            8586.936            11189.91            69.28613
 531.42             10654.6             10976.14            8586.128            10976.14           -321.5371
 531.32             10600.4             10760.26            8585.414            10760.26           -159.8584
 531.22             10435.8             10546.47            8584.81             10546.47           -110.667
 531.12             10106.5             10338.77            8584.259            10338.77           -232.2744
 531.02             10279.5             10140.22            8583.771            10140.22            139.2842
 530.92             10272.7             9953.078            8583.25             9953.078            319.6221
 530.82             9539.05             9779.508            8582.775            9779.508           -240.458
 530.72             9271.58             9620.644            8582.479            9620.644           -349.0635
 530.62             9499.56             9477.146            8582.187            9477.146            22.41309
 530.52             9443.6              9349.013            8581.865            9349.013            94.58691
 530.42             9303.46             9235.957            8581.598            9235.957            67.50293
 530.32             9069.74             9137.468            8581.39             9137.468           -67.72754
 530.22             8897.58             9052.532            8581.274            9052.532           -154.9521
 530.12             8766.5              8980.053            8581.161            8980.053           -213.5527
 530.02             8969.58             8918.787            8581.087            8918.787            50.79297
 529.92             8798.88             8867.415            8581.03             8867.415           -68.53516
 529.82             8710.97             8824.74             8580.995            8824.74            -113.7705
 529.72             8826.31             8789.464            8580.947            8789.464            36.8457
 529.62             8529.13             8760.512            8580.899            8760.512           -231.3818
 529.52             8714.7              8736.875            8580.893            8736.875           -22.1748
 529.42             8633.79             8717.535            8580.83             8717.535           -83.74512
 529.32             8599.23             8701.815            8580.809            8701.815           -102.585
 529.22             9005.99             8689                8580.809            8689                316.9902
 529.12             8914.82             8678.417            8580.716            8678.417            236.4033
 529.02             8767.95             8669.688            8580.63             8669.688            98.2627
 528.92             8498.77             8662.442            8580.571            8662.442           -163.6729
 528.82             8542.11             8656.469            8580.627            8656.469           -114.3584
 528.72             8375.12             8651.353            8580.636            8651.353           -276.2324
 528.62             8565.77             8646.992            8580.683            8646.992           -81.22266
 528.52             8845.59             8643.118            8580.651            8643.118            202.4717
 528.42             8573.53             8639.674            8580.602            8639.674           -66.14355
 528.32             8412.89             8636.676            8580.634            8636.676           -223.7861
 528.22             8514.27             8633.991            8580.688            8633.991           -119.7217
 528.12             8893.63             8631.511            8580.702            8631.511            262.1191
 528.02             8477.58             8629.175            8580.657            8629.175           -151.5947
 527.92             8472.71             8627.096            8580.698            8627.096           -154.3857
 527.82             8610.32             8625.185            8580.755            8625.185           -14.86426
 527.72             8800.66             8623.338            8580.746            8623.338            177.3223
 527.62             8730.27             8621.599            8580.727            8621.599            108.6709
 527.52             8553.49             8619.948            8580.69             8619.948           -66.45801
 527.42             8538.3              8618.416            8580.679            8618.416           -80.11621
 527.32             8540.12             8616.967            8580.662            8616.967           -76.84668
 527.22             8539.77             8615.628            8580.676            8615.628           -75.8584
 527.12             8604.4              8614.335            8580.661            8614.335           -9.93457
 527.02             8455.01             8613.119            8580.655            8613.119           -158.1094
 526.92             8314.38             8612.025            8580.709            8612.025           -297.6455
 526.82             8327.4              8611.007            8580.778            8611.007           -283.6064
 526.72             8470.8              8610.038            8580.843            8610.038           -139.2383
 526.62             8589.19             8609.057            8580.843            8609.057           -19.86621
 526.52             8873.53             8608.084            8580.804            8608.084            265.4463
 526.42             8662.24             8607.165            8580.773            8607.165            55.0752
 526.32             8531.95             8606.316            8580.771            8606.316           -74.36621
 526.22             8598.59             8605.489            8580.75             8605.489           -6.899414
 526.12             8705.64             8604.726            8580.756            8604.726            100.9141
 526.02             8669.37             8603.981            8580.746            8603.981            65.38867
 525.92             8761.19             8603.238            8580.704            8603.238            157.9521
 525.82             8504.12             8602.533            8580.67             8602.533           -98.41309
 525.72             8794.87             8601.919            8580.697            8601.919            192.9512
 525.62             8498.89             8601.257            8580.648            8601.257           -102.3672
 525.52             8373.76             8600.653            8580.633            8600.653           -226.8936
 525.42             8268.62             8600.141            8580.684            8600.141           -331.5205
 525.32             8485.68             8599.676            8580.759            8599.676           -113.9961
 525.22             8565.88             8599.14             8580.741            8599.14            -33.25977
 525.12             8669.27             8598.609            8580.708            8598.609            70.66016
 525.02             8559.98             8598.181            8580.757            8598.181           -38.2002
 524.92             8788.02             8597.758            8580.793            8597.758            190.2617
 524.82             8769.98             8597.267            8580.742            8597.267            172.7139
 524.72             8629.61             8596.78             8580.681            8596.78             32.83008
 524.62             8419.73             8596.405            8580.714            8596.405           -176.6748
 524.52             8349.6              8596.024            8580.726            8596.024           -246.4248
 524.42             8443.29             8595.71             8580.79             8595.71            -152.4199
 524.32             8311.04             8595.409            8580.854            8595.409           -284.3691
 524.22             8603.8              8595.081            8580.877            8595.081            8.71875
 524.12             8733.4              8594.735            8580.87             8594.735            138.665
 524.02             8427.61             8594.394            8580.855            8594.394           -166.7832
 523.92             8556.62             8594.148            8580.927            8594.148           -37.52832
 523.82             8655.07             8593.85             8580.933            8593.85             61.2207
 523.72             8642.45             8593.581            8580.959            8593.581            48.86914
 523.62             8788.47             8593.266            8580.928            8593.266            195.2041
 523.52             8591.19             8592.936            8580.873            8592.936           -1.745117
 523.42             8403.93             8592.681            8580.885            8592.681           -188.751
 523.32             8769.16             8592.461            8580.922            8592.461            176.6992
 523.22             8365.74             8592.165            8580.875            8592.165           -226.4248
 523.12             8652.61             8591.999            8580.95             8591.999            60.61133
 523.02             8580.95             8591.766            8580.95             8591.766           -10.81543