File: Synthesis of barbituric acid doped carbon nitride for efficient solar-driven photocatalytic degradation of aniline/data/CN-BA-XPS/XPS/6#-Valence.dat
B.E.(eV)           Raw Intensity       Peak Sum            Background          Peak 1              Peak 2              Peak 3              Peak 4              Peak 5              Peak 6              difference
 41.02              387.011             390.8696            387.011             387.03              387.0521            387.0466            387.0723            387.0933            390.6302           -3.858612
 40.82              394.506             390.882             386.9408            386.96              386.9823            386.9768            387.003             387.0244            390.6394            3.623962
 40.62              416.158             390.8486            386.822             386.8414            386.864             386.8585            386.8851            386.907             390.6025            25.30939
 40.42              406.835             390.765             386.6501            386.6698            386.6927            386.6871            386.7142            386.7366            390.5153            16.07001
 40.22              376.595             390.9238            386.7178            386.7376            386.7609            386.7553            386.7828            386.8057            390.6705           -14.32877
 40.02              372.465             390.825             386.5249            386.545             386.5685            386.5629            386.5909            386.6142            390.5681           -18.36002
 39.82              360.792             390.9991            386.6016            386.6219            386.6457            386.6401            386.6686            386.6924            390.7383           -30.20709
 39.62              403.954             391.2936            386.7956            386.8161            386.8402            386.8346            386.8636            386.8879            391.0291            12.66037
 39.42              384.53              391.4402            386.838             386.8587            386.8831            386.8775            386.907             386.9319            391.1717           -6.910217
 39.22              344.314             391.7061            386.9961            387.0171            387.0418            387.0363            387.0663            387.0917            391.4336           -47.39215
 39.02              386.823             392.0413            387.2197            387.2409            387.2659            387.2603            387.2909            387.3169            391.7646           -5.218292
 38.82              362.577             392.2506            387.3134            387.3349            387.3602            387.3546            387.3857            387.4123            391.9697           -29.67361
 38.62              397.735             392.5413            387.4843            387.506             387.5317            387.5261            387.5578            387.5849            392.2561            5.193726
 38.42              343.902             392.5388            387.3577            387.3796            387.4057            387.4001            387.4324            387.4601            392.2492           -48.63684
 38.22              365.85              393.1385            387.8285            387.8507            387.8771            387.8715            387.9044            387.9328            392.8443           -27.28845
 38.02              386.283             393.4125            387.9689            387.9914            388.0182            388.0126            388.0461            388.0752            393.1138           -7.129517
 37.82              361.933             393.8255            388.2431            388.2659            388.293             388.2874            388.3215            388.3513            393.522            -31.89246
 37.62              358.547             394.1323            388.4059            388.4289            388.4563            388.4508            388.4855            388.5161            393.8239           -35.58527
 37.42              383.609             394.5296            388.6534            388.6768            388.7046            388.6991            388.7345            388.7657            394.2162           -10.92059
 37.22              408.776             394.8735            388.8417            388.8653            388.8935            388.888             388.9241            388.9561            394.5551            13.90247
 37.02              363.229             395.1863            388.9925            389.0164            389.045             389.0395            389.0763            389.1091            394.8626           -31.95731
 36.82              372.845             395.7949            389.4325            389.4566            389.4856            389.4802            389.5177            389.5513            395.4659           -22.94989
 36.62              406.218             396.0278            389.4896            389.5141            389.5435            389.5381            389.5763            389.6107            395.6932            10.19022
 36.42              406.579             396.0829            389.3615            389.3863            389.4161            389.4107            389.4497            389.485             395.7427            10.49615
 36.22              379.352             396.4726            389.56              389.5851            389.6153            389.6099            389.6497            389.6859            396.1266           -17.12057
 36.02              335.75              396.9346            389.8222            389.8476            389.8782            389.8729            389.9135            389.9507            396.5826           -61.18457
 35.82              384.09              397.6014            390.28              390.3058            390.3368            390.3315            390.373             390.4111            397.2434           -13.51141
 35.62              352.757             398.0006            390.4603            390.4863            390.5179            390.5126            390.5549            390.594             397.6364           -45.24365
 35.42              410.3               398.459             390.6889            390.7153            390.7473            390.742             390.7852            390.8254            398.0883            11.84094
 35.22              379.572             398.6252            390.6134            390.6402            390.6726            390.6674            390.7115            390.7528            398.2479           -19.05322
 35.02              358.055             399.0176            390.7511            390.7782            390.8111            390.806             390.851             390.8934            398.6334           -40.96259
 34.82              355.298             399.493             390.9575            390.9849            391.0183            391.0132            391.0592            391.1028            399.1019           -44.19504
 34.62              375.366             400.0951            391.2743            391.3021            391.336             391.331             391.378             391.4227            399.6967           -24.72906
 34.42              354.594             400.6321            391.508             391.5361            391.5706            391.5656            391.6136            391.6596            400.2264           -46.03815
 34.22              347.131             401.3105            391.8622            391.8907            391.9257            391.9208            391.9699            392.0172            400.8971           -54.17944
 34.02              359.016             401.7247            391.9287            391.9577            391.9931            391.9883            392.0385            392.0872            401.3035           -42.70868
 33.82              364.15              402.2694            392.0985            392.1278            392.1638            392.1591            392.2104            392.2605            401.8402           -38.11942
 33.62              364.618             402.8452            392.2675            392.2973            392.3338            392.3292            392.3817            392.4333            402.4077           -38.22717
 33.42              350.808             403.7455            392.7242            392.7543            392.7914            392.7868            392.8406            392.8937            403.2995           -52.9375
 33.22              338.683             404.6152            393.1065            393.1371            393.1748            393.1703            393.2253            393.28              404.1603           -65.93219
 33.02              370.272             405.3513            393.304             393.335             393.3733            393.3689            393.4252            393.4816            404.8874           -35.07928
 32.82              333.169             406.3003            393.6536            393.685             393.7239            393.7197            393.7773            393.8354            405.827            -73.13126
 32.62              382.897             407.5701            394.2521            394.284             394.3235            394.3194            394.3784            394.4383            407.0872           -24.6731
 32.42              379.4               408.4216            394.3471            394.3794            394.4196            394.4156            394.476             394.5378            407.9287           -29.02164
 32.22              361.945             409.2677            394.3354            394.3682            394.4091            394.4052            394.4671            394.5309            408.7645           -47.32269
 32.02              389.644             410.3597            394.4501            394.4833            394.5248            394.5211            394.5846            394.6504            409.8459           -20.71573
 31.82              394.642             411.5934            394.5648            394.5985            394.6407            394.6371            394.7022            394.7702            411.0686           -16.95139
 31.62              413.661             412.9611            394.6469            394.681             394.724             394.7205            394.7873            394.8575            412.425             .6999207
 31.42              366.511             414.645             394.8492            394.8839            394.9276            394.9243            394.9927            395.0653            414.0972           -48.13403
 31.22              393.005             416.3881            394.8814            394.9166            394.961             394.9579            395.0281            395.1032            415.8281           -23.38306
 31.02              380.476             418.435             394.9503            394.9861            395.0313            395.0284            395.1004            395.1781            417.8625           -37.95898
 30.82              397.435             420.8974            395.1252            395.1614            395.2074            395.2047            395.2787            395.3591            420.312            -23.46243
 30.62              417.343             423.5226            395.1055            395.1423            395.1891            395.1866            395.2625            395.3458            422.9237           -6.179657
 30.42              439.416             426.218             394.7462            394.7836            394.8312            394.8289            394.907             394.9933            425.6052            13.19797
 30.22              442.313             429.2221            394.2286            394.2666            394.315             394.313             394.3932            394.4826            428.5948            13.09085
 30.02              391.585             432.8957            393.8513            393.8898            393.9391            393.9373            394.0198            394.1125            432.2535           -41.31073
 29.82              433.385             437.2721            393.5809            393.6201            393.6703            393.6687            393.7535            393.8497            436.6143           -3.887085
 29.62              467.511             442.1623            393.1587            393.1985            393.2496            393.2484            393.3356            393.4354            441.4884            25.34869
 29.42              392.745             447.536             392.4811            392.5215            392.5736            392.5726            392.6624            392.7661            446.8454           -54.79105
 29.22              461.309             453.8654            391.9454            391.9865            392.0395            392.0389            392.1313            392.2391            453.1573            7.443634
 29.02              488.527             460.5168            390.843             390.8847            390.9388            390.9385            391.0336            391.1457            459.7906            28.01022
 28.82              480.88              468.1578            389.7669            389.8093            389.8643            389.8644            389.9625            390.079             467.4128            12.72217
 28.62              504.958             477.2054            389.0627            389.1058            389.1619            389.1624            389.2634            389.3848            476.4408            27.75262
 28.42              517.991             486.7668            387.7714            387.8152            387.8723            387.8732            387.9774            388.1038            485.9818            31.22418
 28.22              545.83              497.1955            386.1868            386.2313            386.2896            386.2909            386.3983            386.5301            496.3892            48.63449
 28.02              572.093             508.6064            384.3744            384.4196            384.4791            384.4809            384.5917            384.7291            507.7779            63.4866
 27.82              511.757             521.0182            382.3148            382.3609            382.4215            382.4237            382.5382            382.6816            520.1664           -9.2612
 27.62              624.258             535.0597            380.6141            380.6609            380.7228            380.7256            380.8438            380.9935            534.1837            89.1983
 27.42              640.792             549.4974            378.0325            378.0801            378.1432            378.1465            378.2686            378.4252            548.5962            91.29456
 27.22              613.485             565.0481            375.3               375.3485            375.4129            375.4167            375.543             375.7068            564.1204            48.43689
 27.02              609.736             581.7659            372.5063            372.5556            372.6213            372.6258            372.7564            372.9278            580.8105            27.97015
 26.82              689.804             599.4772            369.536             369.5862            369.6533            369.6584            369.7935            369.9731            598.4927            90.32684
 26.62              672.605             617.8995            366.1914            366.2425            366.311             366.3168            366.4567            366.645             616.8846            54.70551
 26.42              696.046             637.1224            362.6723            362.7243            362.7943            362.8008            362.9457            363.1432            636.0756            58.92358
 26.22              666.663             657.1978            359.1689            359.2219            359.2934            359.3007            359.4509            359.6583            656.1174            9.465271
 26.02              742.901             677.623             355.3453            355.3992            355.4722            355.4804            355.6361            355.8542            676.5073            65.27802
 25.82              770.86              698.1964            351.1934            351.2483            351.3229            351.3319            351.4936            351.723             697.0436            72.66357
 25.62              766.022             718.4872            346.5043            346.5602            346.6365            346.6465            346.8142            347.0559            717.2953            47.53479
 25.42              750.676             738.8529            341.8832            341.9402            342.0182            342.0292            342.2035            342.4583            737.6198            11.82312
 25.22              801.248             758.868             337.1781            337.2361            337.3159            337.3279            337.5091            337.778             757.5913            42.37994
 25.02              759.884             777.8802            332.0323            332.0916            332.1731            332.1862            332.3747            332.6589            776.5575           -17.99628
 24.82              818.375             795.963             326.8348            326.8952            326.9787            326.993             327.1891            327.4897            794.5914            22.41205
 24.62              785.81              812.8856            321.6868            321.7483            321.8338            321.8493            322.0536            322.372             811.4625           -27.07562
 24.42              781.417             828.3146            316.5955            316.6583            316.7457            316.7627            316.9756            317.3132            826.8367           -46.89764
 24.22              829.012             841.6517            311.3073            311.3713            311.4609            311.4792            311.7014            312.0598            840.1157           -12.63971
 24.02              804.594             852.2847            305.5474            305.6127            305.7044            305.7243            305.9562            306.3373            850.6866           -47.69067
 23.82              808.407             860.7443            300.1649            300.2316            300.3256            300.3471            300.5894            300.9951            859.0803           -52.33734
 23.62              810.124             866.467             294.8832            294.9512            295.0476            295.0709            295.3242            295.7568            864.7326           -56.34302
 23.42              776.323             868.7402            289.2293            289.2988            289.3975            289.4227            289.6877            290.1498            866.9304           -92.41724
 23.22              855.602             867.4391            283.2586            283.3295            283.4308            283.4579            283.7355            284.2298            865.5487           -11.83716
 23.02              828.956             862.4443            276.959             277.0314            277.1353            277.1646            277.4557            277.9852            860.4673           -33.48828
 22.82              840.732             854.245             270.8485            270.9225            271.0291            271.0606            271.366             271.9345            852.1749           -13.513
 22.62              778.083             842.6112            264.6442            264.7198            264.8292            264.8632            265.184             265.7953            840.4409           -64.5282
 22.42              829.32              827.7152            258.388             258.4652            258.5776            258.6141            258.9515            259.6102            825.4366            1.604797
 22.22              821.353             809.5918            251.9152            251.9942            252.1095            252.1489            252.504             253.2153            807.196             11.76123
 22.02              817.371             788.9564            245.6849            245.7656            245.8842            245.9266            246.3008            247.0704            786.4334            28.41461
 21.82              757.035             765.9154            239.5051            239.5877            239.7095            239.7551            240.1499            240.9847            763.2541           -8.880432
 21.62              759.692             740.7558            233.3354            233.4199            233.5452            233.5943            234.0112            234.9189            737.9436            18.93622
 21.42              748.475             713.983             227.3392            227.4256            227.5545            227.6073            228.0483            229.0378            711.0057            34.49194
 21.22              756.975             685.7882            221.3611            221.4495            221.5822            221.6389            222.106             223.1876            682.6295            71.18677
 21.02              691.581             656.8919            215.7794            215.8699            216.0065            216.0676            216.5628            217.7487            653.5334            34.68909
 20.82              720.108             627.1371            210.1075            210.2002            210.3409            210.4066            210.9325            212.2367            623.5578            92.97083
 20.62              664.458             597.1268            204.6339            204.7289            204.8738            204.9445            205.5039            206.9431            593.3022            67.33124
 20.42              691.685             566.9775            199.1821            199.2794            199.4287            199.5048            200.1008            201.6947            562.8794            124.7075
 20.22              599.932             537.2941            194.0853            194.185             194.339             194.421             195.0569            196.8293            532.8893            62.63788
 20.02              570.156             508.8009            189.8204            189.9227            190.0816            190.1699            190.8496            192.8295            504.0498            61.3551
 19.82              529.856             481.261             185.9284            186.0333            186.1973            186.2924            187.0204            189.2444            476.1153            48.59497
 19.62              509.252             454.74              182.274             182.3816            182.5509            182.6535            183.4346            185.9519            449.1375            54.51205
 19.42              398.944             429.6206            179.0593            179.1697            179.3446            179.4552            180.2951            183.1761            423.4761           -30.67661
 19.22              415.386             406.5178            176.7266            176.84              177.0208            177.1401            178.0451            181.4002            399.7045            8.868164
 19.02              331.725             384.5549            174.2185            174.3349            174.5219            174.6509            175.6282            179.643             376.8685           -52.82993
 18.82              348.375             364.6202            172.2058            172.3255            172.519             172.6583            173.7164            178.7148            355.7154           -16.24518
 18.62              312.273             346.7294            170.4056            170.5286            170.7289            170.8796            172.0281            178.5777            336.0146           -34.45642
 18.42              314.462             331.2244            168.7257            168.8521            169.0596            169.2227            170.4728            179.5432            317.7024           -16.76242
 18.22              328.743             318.6722            167.107             167.237             167.4521            167.6288            168.9936            182.168             300.7276            10.07083
 18.02              305.922             309.9383            165.5669            165.7007            165.9238            166.1154            167.6102            187.3261            285.0966           -4.016296
 17.82              309.764             306.1287            164.1705            164.3082            164.5398            164.7477            166.3913            196.1474            270.8468            3.635284
 17.62              323.725             307.9854            162.5573            162.6992            162.9397            163.1656            164.9809            209.4103            257.5765            15.73959
 17.42              345.13              316.1627            160.4716            160.6178            160.8677            161.1135            163.1305            227.8143            244.9772            28.96729
 17.22              342.521             331.6465            158.5389            158.6895            158.9495            159.2172            161.4774            252.3946            233.6128            10.87448
 17.02              400.436             353.3781            156.2749            156.4302            156.7007            156.9928            159.5576            282.14              222.9312            47.05795
 16.82              365.462             379.6705            153.8027            153.9629            154.2447            154.5637            157.5291            315.4004            212.983            -14.20847
 16.62              388.94              407.49              151.2514            151.4168            151.7105            152.0594            155.582             349.1553            203.8228           -18.54999
 16.42              445.926             432.2435            148.4041            148.5749            148.8813            149.2636            153.6009            378.7851            195.158             13.68246
 16.22              439.128             448.6965            145.0892            145.2657            145.5856            146.0053            151.5772            398.9656            186.743            -9.568481
 16.02              468.735             452.8082            141.762             141.9445            142.2788            142.7403            150.2126            405.4813            178.9607            15.92682
 15.82              441.553             442.3719            138.1906            138.3794            138.7291            139.2376            149.6248            395.8441            171.5099           -.8188477
 15.62              422.449             419.8338            135.013             135.2083            135.5745            136.1361            150.9105            372.1056            164.9636            2.615173
 15.42              378.395             389.5379            131.8118            132.0142            132.3979            133.0196            154.2013            338.1204            158.8436           -11.14291
 15.22              366.299             357.3698            128.7634            128.9731            129.3757            130.0657            160.2542            299.2479            153.2702            8.92923
 15.02              320.26              328.9816            126.4068            126.6242            127.0471            127.8155            170.1182            260.679             148.7313           -8.721558
 14.82              327.011             307.734             124.3735            124.5992            125.0438            125.9033            183.7227            225.5202            144.8125            19.27695
 14.62              300.704             295.1542            122.1989            122.4332            122.9013            123.8682            200.5282            195.4101            141.0078            5.549774
 14.42              302.105             291.7789            120.2337            120.4771            120.9705            122.0675            220.2955            171.5052            137.6314            10.32608
 14.22              303.99              295.9202            118.2246            118.4778            118.9985            120.2588            241.5758            153.3344            134.3981            8.069763
 14.02              348.439             304.8426            116.119             116.3824            116.9328            118.4071            262.5024            139.9857            131.227             43.59644
 13.82              337.751             314.8495            113.6844            113.9589            114.5413            116.3101            280.4953            130.1045            127.8616            22.90155
 13.62              352.913             322.5244            111.2152            111.5013            112.1187            114.3103            293.2099            122.8851            124.5754            30.38858
 13.42              331.068             324.6977            108.8015            109.0999            109.7554            112.5728            298.3318            117.5045            121.4406            6.37027
 13.22              329.656             319.4478            106.4679            106.7795            107.4765            111.2343            294.5156            113.3142            118.467             10.20825
 13.02              292.233             306.8124            104.2776            104.6034            105.3459            110.515             282.1044            109.9269            115.7049           -14.57941
 12.82              252.405             288.4003            102.1254            102.4663            103.2587            110.5173            262.7874            106.959             113.0385           -35.9953
 12.62              239.88              267.0673            100.2228            100.5799            101.4273            111.7074            239.3349            104.4615            110.6705           -27.18732
 12.42              285.558             245.404             98.38492            98.7593             99.6674             114.1847            214.1479            102.1609            108.4084            40.15399
 12.22              220.26              225.7883            96.56934            96.96236            97.93763            118.1874            189.3763            99.96733            106.2039           -5.528275
 12.02              238.267             210.3913            95.13356            95.54662            96.5965             124.298             166.996             98.21272            104.4093            27.87575
 11.82              239.112             200.0605            93.84351            94.2782             95.41119            132.3866            147.7673            96.64835            102.7863            39.05148
 11.62              188.78              194.845             92.43268            92.89073            94.11671            142.1026            131.8347            94.9986             101.0651           -6.065033
 11.42              209.5               194.5797            91.13648            91.61983            92.9502             153.3506            119.3706            93.49262            99.47826            14.92033
 11.22              196.887             198.0285            89.71886            90.22964            91.6777             165.2829            109.7556            91.88969            97.78733           -1.141556
 11.02              221.12              203.8672            88.30075            88.84137            90.4227             177.1247            102.5638            90.30707            96.11132            17.25281
 10.82              205.674             210.3781            86.88992            87.46305            89.19602            187.7391            97.22361            88.74953            94.45641           -4.704117
 10.62              205.926             215.8362            85.5837             86.19237            88.09875            195.9247            93.30836            87.31197            92.91859           -9.910248
 10.42              227.631             218.5136            84.3269             84.97449            87.08027            200.3761            90.33864            85.93713            91.44154            9.117371
 10.22              192.525             216.7425            82.6367             83.32705            85.66348            199.7366            87.51688            84.14045            89.54147           -24.2175
 10.02              176.635             210.9612            81.33539            82.07286            84.67781            194.6564            85.44831            82.74281            88.03989           -34.32616
 9.82               191.525             201.0959            79.87965            80.66921            83.58902            185.1946            83.44894            81.19963            86.39275           -9.570953
 9.62               185.054             188.5077            78.57201            79.41936            82.71144            172.7878            81.73483            79.8124             84.90197           -3.45372
 9.42               196.186             174.3442            77.28511            78.19678            81.93379            158.6192            80.12754            78.45284            83.43964            21.84178
 9.22               188.96              159.9792            76.17069            77.15425            81.43206            144.0679            78.74945            77.27192            82.15704            28.98083
 9.02               147.419             146.3167            75.09764            76.16188            81.11742            130.0126            77.45256            76.13786            80.92261            1.10228
 8.82               155.726             134.3589            74.25636            75.41154            81.26597            117.3791            76.41731            75.24046            79.92636            21.36708
 8.62               151.369             124.5537            73.46292            74.72112            81.88196            106.4323            75.45358            74.39531            78.98404            26.81532
 8.42               134.446             117.4872            72.71085            74.08636            83.37023            97.3499             74.55067            73.59547            78.08881            16.95879
 8.22               124.298             114.0647            72.09551            73.60536            86.66835            90.19588            73.80093            72.93593            77.33578            10.23332
 8.02               92.397              115.633             71.59085            73.25549            93.30425            84.76267            73.17594            72.39028            76.69857           -23.23595
 7.82               146.739             124.4945            71.2533             73.09752            105.8424            80.84283            72.73022            72.01466            76.23339            22.24451
 7.62               143.754             143.0735            70.37823            72.43229            126.9916            77.44368            71.75756            71.10416            75.23536            .680542
 7.42               180.48              175.2227            69.43449            71.73579            160.8697            74.76366            70.72549            70.12739            74.1731             5.257294
 7.22               250.356             222.4963            67.78717            70.38252            209.252             71.93896            68.99796            68.44923            72.41148            27.85966
 7.02               298.88              283.9042            65.45877            68.40804            271.3152            68.81345            66.59654            66.09201            69.97282            14.97583
 6.82               378.567             353.3832            62.37607            65.75926            341.1075            65.18358            63.44717            62.98232            66.78372            25.18375
 6.62               456.739             419.3196            58.53662            62.47073            407.069             60.95724            59.54669            59.11756            62.84154            37.41937
 6.42               480.416             465.9073            54.10696            58.79048            453.3715            56.24226            55.06104            54.66415            58.31266            14.5087
 6.22               443.866             478.3303            49.65314            55.48026            465.0412            51.56784            50.5557             50.18798            53.76295           -34.46426
 6.02               454.262             451.2748            45.26108            53.08449            436.3289            46.99752            46.11617            45.7749             49.27822            2.987183
 5.82               410.624             394.1476            40.75653            52.40306            375.6811            42.34367            41.56777            41.25054            44.68407            16.47641
 5.62               328.707             325.7953            36.897              55.98541            300.1613            38.35579            37.66766            37.37232            40.73787            2.911713
 5.42               299.008             264.0806            33.50867            66.39178            224.9033            34.85514            34.24169            33.96633            37.26566            34.9274
 5.22               242.833             222.8686            30.84613            87.0966             160.5562            32.09318            31.5442             31.28711            34.52195            19.96442
 5.02               227.263             208.5315            28.231              119.7516            111.1646            29.38934            28.89654            28.65618            31.82821            18.73152
 4.82               258.824             220.522             25.78972            163.8171            76.84932            26.86845            26.42494            26.19993            29.3108             38.30205
 4.62               319.872             249.9985            23.07822            213.2801            54.33934            24.08521            23.68513            23.47424            26.52553            69.87354
 4.42               287.395             282.1494            19.9946             257.0254            39.83771            20.9367             20.57505            20.37716            23.37041            5.245575
 4.22               272.981             299.6821            16.94949            281.0155            30.50105            17.8327             17.50517            17.31926            20.25599           -26.70114
 4.02               301.561             289.3656            13.94809            274.318             24.03682            14.7777             14.48053            14.30569            17.18737            12.19537
 3.82               243.701             251.2076            10.7484             238.3224            18.82215            11.5291             11.25903            11.09442            13.92246           -7.506607
 3.62               217.803             198.1705            8.407089            186.7224            15.18336            9.143034            8.897214            8.742089            11.51787            19.63248
 3.42               168.183             143.2117            6.176086            132.8264            12.02182            6.870979            6.646914            6.50058             9.225449            24.97128
 3.22               146.082             96.29903            4.351807            86.76216            9.474688            5.008958            4.804449            4.666281            7.341532            49.78297
 3.02               118.299             61.76389            2.999237            52.9348             7.533743            3.621614            3.434724            3.304147            5.931044            56.53512
 2.82               91.5406             39.1108             1.8713              30.88646            5.914774            2.461568            2.290586            2.167075            4.74684             52.4298
 2.62               35.018              25.76182            1.114155            18.06159            4.741941            1.674718            1.518124            1.401199            3.93502             9.25618
 2.42               23.1413             18.50404            .724987             11.26268            3.997432            1.258015            1.11446             1.00368             3.49271             4.63726
 2.22               15.3501             14.63607            .545517             7.799794            3.511834            1.052976            .9212588            .8162178            3.261573            .7140303
 2.02               11.7367             12.35621            .3658304            5.880171            3.066617            .8495049            .728552             .6288773            3.031642           -.6195126
 1.82               4.77391             10.91987            .2782292            4.766298            2.747274            .7397422            .6285938            .5339417            2.895167           -6.14596
 1.62               2.80912             9.895952            .2375107            4.032785            2.503153            .6783417            .5761372            .4861909            2.806897           -7.086832
 1.42               2.52901             9.096345            .2202959            3.496156            2.306474            .6417966            .5477629            .4622295            2.743406           -6.567335
 1.22               1.19248             8.420068            .1966817            3.059224            2.123747            .6000892            .5135305            .4321393            2.674746           -7.227588
 1.02               0                   7.861203            .1955343            2.719212            1.980897            .5819827            .5022716            .424772             2.629739           -7.861203
 .82                1.94478             7.368706            .1864169            2.427687            1.845051            .5569481            .4835178            .4096775            2.577909           -5.423926
 .62                3.13725             6.934081            .1750674            2.178342            1.719924            .5306402            .4629781            .3925815            2.524953           -3.796831
 .42                0                   6.553411            .168223             1.969107            1.610555            .5097209            .4473622            .3802093            2.477572           -6.553411
 .22                0                   6.20593             .1533914            1.780786            1.503023            .48163              .4241531            .3600577            2.423237           -6.20593
 .02                0                   5.898466            .1439452            1.621547            1.409492            .4596787            .4067001            .3454891            2.375285           -5.898466
-.18                0                   5.631446            .1455537            1.492967            1.3346              .4494803            .4006509            .342163             2.339354           -5.631446
-.38                0                   5.38959             .1471802            1.380758            1.266428            .4399472            .394949             .3390337            2.304374           -5.38959
-.58                .53221              5.154166            .1335658            1.267051            1.188961            .4157745            .3743169            .3208338            2.255057           -4.621956
-.78                0                   4.945592            .1279919            1.173016            1.124826            .4002011            .3620186            .3108367            2.214653           -4.945592
-.98                0                   4.754871            .1238401            1.090309            1.066838            .3865701            .3514197            .3024164            2.176518           -4.754871
-1.18               1.61665             4.578546            .1196514            1.016054            1.013044            .3733872            .3410463            .2941069            2.139164           -2.961895
-1.38               2.16887             4.398442            9.893417E-02        .9325854            .9465222            .3441281            .3143926            .2694096            2.086075           -2.229572
-1.58               0                   4.239955            8.851504E-02        .8657502            .8937221            .3255899            .2982721            .2551449            2.044051           -4.239955
-1.78               .37215              4.102974            8.950412E-02        .8158374            .855422             .3188554            .2937828            .252417             2.01418            -3.730824
-1.98               1.60864             3.963871            7.932675E-02        .7595794            .8087542            .3013246            .2783385            .2386455            1.973863           -2.355232
-2.18               .37215              3.832764            6.900632E-02        .7074117            .7644834            .2839978            .262952             .2248485            1.934102           -3.460614
-2.38               0                   3.708918            5.859987E-02        .6588902            .7224367            .2669105            .2476701            .2110779            1.894932           -3.708918
-2.58               0                   3.602793            5.925469E-02        .6247328            .6935571            .2611902            .2436307            .2084763            1.86748            -3.602793
-2.78               0                   3.474853            3.203662E-02        .5656354            .638728             .2278845            .2118909            .1781049            1.812792           -3.474853
-2.98               0                   3.374442            2.682333E-02        .5311567            .6076641            .2168541            .2023199            .1698371            1.780727           -3.374442
-3.18               0                   3.284601            2.712306E-02        .5045272            .5837272            .2115913            .1984182            .167177             1.754775           -3.284601
-3.38               1.62865             3.198367            2.639079E-02        .4789605            .5602412            .2055367            .1936333            .1635758            1.728373           -1.569717
-3.58               1.33653             3.105443            1.469994E-02        .4443188            .5271611            .18875              .1780318            .1491033            1.691578           -1.768914
-3.78               .94438              3.018991            5.542576E-03        .413909             .4978721            .1747106            .1650992            .1372478            1.657865           -2.074611
-3.98               0                   2.939795            0                   .3886491            .4733592            .1644882            .1559106            .1290876            1.6283             -2.939795